t_s,phi_deg,roll_deg,pitch_deg,yaw_deg,pos_x,pos_y,pos_z,u0,u1,u2,u3,wx,wy,wz,wx_dot,wy_dot,wz_dot,pred_wx_dot,pred_wy_dot,pred_wz_dot,pred_nogyro_wx_dot,pred_nogyro_wy_dot,pred_nogyro_wz_dot,tau_gyro_x,tau_gyro_y,tau_gyro_z,flap_damp_x,flap_damp_y,flap_damp_z,flap_prec_x,flap_prec_y,flap_prec_z,tau_cmd_x,tau_cmd_y,tau_cmd_z,spd0,spd1,spd2,spd3,sem_lift,sem_roll,sem_pitch,sem_yaw
0.000000000000000000e+00,0.000000000000000000e+00,1.623538856708581501e-01,-3.075068242565722754e-01,9.569559745685781138e+01,6.808959034440965619e-01,-2.540218470459001954e-01,-5.183864822800120509e-01,5.986869335174560547e-01,6.814405918121337891e-01,7.052592039108276367e-01,9.194967746734619141e-01,6.276060660776495992e-03,-2.549340202692482356e-03,-8.024101566268690422e-03,-1.009080113342585516e+00,-1.207598695517294596e+00,-1.495323103729282455e-01,-2.485464539281123564e+01,-3.859195693098646274e+01,-2.940627501396327226e+00,-2.485354177436045120e+01,-3.859170129061861587e+01,-2.946015540743156969e+00,-2.757847461373275424e-05,-6.789371596018012117e-05,1.010156490524080674e-03,-1.035032328857342176e-04,4.204308513990663045e-05,0.000000000000000000e+00,8.833032661086038816e-07,2.174548879001971956e-06,0.000000000000000000e+00,-2.932072524335435304e+00,-3.574159256908106208e+00,-5.523223462077532231e-01,5.986869335174560547e-01,6.814405918121337891e-01,7.052592039108276367e-01,9.194967746734619141e-01,7.262208759784698486e-01,6.574195623397827148e-02,-1.484956145286560059e-01,-1.723142266273498535e-01
1.000000000021827873e-02,0.000000000000000000e+00,1.594486549103412976e-01,-3.125770479956032077e-01,9.569159803106248319e+01,6.805227634129752401e-01,-2.541705424637887845e-01,-5.184306839722802041e-01,5.978773474771901242e-01,6.810400459504689641e-01,7.072243824014046165e-01,9.213112817922523012e-01,2.548246257139984844e-02,-8.837007196359436545e-03,-2.107794887759677910e-02,-9.807631344435273624e-01,-2.093366092632467534e+00,-6.294685676844911093e-01,-2.485895870522633544e+01,-3.859882764907349184e+01,-2.940920931498043789e+00,-2.485461149364330424e+01,-3.859751734554114933e+01,-2.948829245067040805e+00,-9.568701417508216299e-05,-2.759238170916117859e-04,1.482660716930854321e-03,-4.202361543301967811e-04,1.457327724736596976e-04,0.000000000000000000e+00,3.064752107123112729e-06,8.837542974114262115e-06,0.000000000000000000e+00,-2.932182993722389774e+00,-3.574664076491051556e+00,-5.528445581984088308e-01,5.986347208728429736e-01,6.814147594018818976e-01,7.053859441966360277e-01,9.196137977082342596e-01,7.268632644053290015e-01,6.546210045878442241e-02,-1.486247989320632623e-01,-1.748091353829988592e-01
1.999999999998181011e-02,0.000000000000000000e+00,1.502049546581227524e-01,-3.358619096490736422e-01,9.568183602954528055e+01,6.804246138752944040e-01,-2.541663398183325318e-01,-5.183864150378769686e-01,5.970677614369610531e-01,6.806395000888224578e-01,7.091895608918922234e-01,9.231257889109600878e-01,-3.625720475390877690e-02,8.605192104138140174e-03,-2.455324601779159885e-02,-1.028635218044823718e+00,-2.411266779816303885e+00,-8.858250932559613711e-01,-2.485027018584836966e+01,-3.860441417921446572e+01,-2.941446692183410594e+00,-2.485610401310050221e+01,-3.860699264158169086e+01,-2.954233014113734068e+00,9.334516867243349133e-05,3.933014919814556637e-04,2.397195947621655158e-03,5.978851884411678745e-04,-1.419005391528541506e-04,0.000000000000000000e+00,-2.989780613960263916e-06,-1.259717233244513982e-05,0.000000000000000000e+00,-2.932396786674805078e+00,-3.575640840214806992e+00,-5.538554622333723421e-01,5.985336629344898407e-01,6.813647605914003869e-01,7.056312509050971515e-01,9.198402966094404443e-01,7.275056528321590665e-01,6.518224468360322987e-02,-1.487539833354646346e-01,-1.773040441385343446e-01
3.000000000020008883e-02,0.000000000000000000e+00,1.409652121214242382e-01,-3.591483768220484762e-01,9.567208404350418505e+01,6.803650144411701461e-01,-2.540506926507249408e-01,-5.183541457116773721e-01,5.962581753966951226e-01,6.802389542271576328e-01,7.111547393824692032e-01,9.249402960297504750e-01,-9.890545876137389614e-02,2.631374949571168437e-02,-2.792102783127719742e-02,-1.282587801580607589e+00,-1.928441557229024106e+00,-7.875392492047194049e-01,-2.484214274361286101e+01,-3.861433756273634543e+01,-2.945025229411546430e+00,-2.485831431133328806e+01,-3.862089547528756839e+01,-2.962374962236933307e+00,2.861865667981245082e-04,1.075689106378548447e-03,3.252750043990549917e-03,1.630806241429541559e-03,-4.338752122524805813e-04,0.000000000000000000e+00,-9.166503164474624186e-06,-3.445412448224827959e-05,0.000000000000000000e+00,-2.932707199796466213e+00,-3.577058517854436293e+00,-5.553238377015403682e-01,5.983869098826544164e-01,6.812921539446997743e-01,7.059874773301459960e-01,9.201692109483932125e-01,7.281480412590181084e-01,6.490238890840938080e-02,-1.488831677388718910e-01,-1.797989528941834614e-01
3.999999999996362021e-02,0.000000000000000000e+00,1.317294225066730495e-01,-3.824364533707962366e-01,9.566234207144265156e+01,6.803474278462688929e-01,-2.539404401611677908e-01,-5.183263914729037136e-01,5.954485893564659404e-01,6.798384083655111265e-01,7.131199178729568100e-01,9.267548031484582616e-01,-6.673042849286869860e-02,-3.302391115363809138e-02,-2.203114778076930430e-02,-1.625939161861282400e+00,-1.864643800864352885e+00,-8.144690131577828618e-01,-2.485651855793060605e+01,-3.862812717733697809e+01,-2.950223062663935636e+00,-2.486288706135555771e+01,-3.864161667004211154e+01,-2.971841898257223225e+00,-3.603765797194663132e-04,7.282021645345050035e-04,4.053126877215826665e-03,1.100152088698746989e-03,5.444491464124109675e-04,0.000000000000000000e+00,1.154301301295551970e-05,-2.332462078370219619e-05,0.000000000000000000e+00,-2.933107946307230485e+00,-3.578887846048395716e+00,-5.572205947075087318e-01,5.981974087329771095e-01,6.811983975093010013e-01,7.064474699248346479e-01,9.205939356447276900e-01,7.287904296858480624e-01,6.462253313322813275e-02,-1.490123521422733188e-01,-1.822938616497190578e-01
5.000000000018189894e-02,0.000000000000000000e+00,1.224975810218678074e-01,-4.057261431574467059e-01,9.565261011186319706e+01,6.803209463431371118e-01,-2.539648706201455552e-01,-5.183649664686273972e-01,5.946390033162000099e-01,6.794378625038463015e-01,7.150850963635337898e-01,9.285693102672486487e-01,-1.800531595813868735e-02,-1.058089150033755255e-01,-1.452547191992021279e-02,-2.061100853709132430e+00,-2.415455941334692103e+00,-1.037092915291524697e+00,-2.487464709077793046e+01,-3.864552839951714702e+01,-2.958527027619849648e+00,-2.486765054107254969e+01,-3.866642275545512319e+01,-2.984139638672326456e+00,-1.159347770536207347e-03,1.972841599708506839e-04,4.801884995355771950e-03,2.968009104511734413e-04,1.744161689795701610e-03,0.000000000000000000e+00,3.713513727812323855e-05,-6.319220642420656588e-06,0.000000000000000000e+00,-2.933593131531012421e+00,-3.581101249516424279e+00,-5.595186190683659744e-01,5.979679164391693558e-01,6.810848552988418847e-01,7.070045364960368950e-01,9.211082915996364751e-01,7.294328181127072153e-01,6.434267735803428367e-02,-1.491415365456805753e-01,-1.847887704053680635e-01
5.999999999994543032e-02,0.000000000000000000e+00,1.132696828799326372e-01,-4.290174500415251946e-01,9.564288816327101017e+01,6.802572457936103545e-01,-2.540107785317858302e-01,-5.184015580801785150e-01,5.938294172759709388e-01,6.790373166421997952e-01,7.170502748540212856e-01,9.303838173859564353e-01,-6.187442902776532638e-02,-1.278862759819849870e-01,-5.417544188196956982e-03,-2.252368016694224817e+00,-3.463529840377984392e+00,-1.349759130515353345e+00,-2.487466065155475547e+01,-3.866425607428395494e+01,-2.968241007555779909e+00,-2.487175332099911884e+01,-3.869413314637452572e+01,-2.997589823446975998e+00,-1.407853086052439189e-03,6.811528851363458101e-04,5.502353444974642828e-03,1.019767451405055895e-03,2.107724689779533461e-03,0.000000000000000000e+00,4.509590060005040792e-05,-2.181847176091075908e-05,0.000000000000000000e+00,-2.934157229644777765e+00,-3.583672762586848304e+00,-5.621926296929413702e-01,5.977010121506904916e-01,6.809528033576107697e-01,7.076524164503268377e-01,9.217064982230132042e-01,7.300752065395370582e-01,6.406282158285314665e-02,-1.492707209490820031e-01,-1.872836791609034934e-01
7.000000000016370905e-02,0.000000000000000000e+00,2.613122335437391419e-02,-5.247235966749039804e-01,9.560271802966369137e+01,6.802697769756543833e-01,-2.540303476006499084e-01,-5.184009889734095822e-01,5.930198312357050083e-01,6.786367707805349703e-01,7.190154533445982654e-01,9.321983245047468225e-01,-1.483431047918478130e-01,-1.266347155597805640e-01,4.427527016906449009e-03,-2.050044508286418488e+00,-5.058862898541251596e+00,-1.734878249462480593e+00,-2.486693098767744559e+01,-3.868655676253251130e+01,-2.979417619274284945e+00,-2.487615188017771217e+01,-3.872624615794678959e+01,-3.012261680889613213e+00,-1.401471745892965935e-03,1.641719406442471510e-03,6.157646572387594913e-03,2.444406068408688099e-03,2.086694003202141292e-03,0.000000000000000000e+00,4.489226129423420464e-05,-5.258792892672364502e-05,0.000000000000000000e+00,-2.934795061649024817e+00,-3.586577951633992623e+00,-5.652190472351693584e-01,5.973991086798706718e-01,6.808034354339501659e-01,7.083852529588353653e-01,9.223831477324466732e-01,7.307175949663963221e-01,6.378296580765929757e-02,-1.493999053524892595e-01,-1.897785879165524991e-01
7.999999999992724042e-02,0.000000000000000000e+00,-9.544033035131099796e-02,-6.526209490758732024e-01,9.554952887495552716e+01,6.802870341834814649e-01,-2.540536982379498210e-01,-5.183176469534919173e-01,5.922102451954759372e-01,6.782362249188884640e-01,7.209806318350858723e-01,9.340128316234546091e-01,-1.610352097999981913e-01,-2.344559065071258330e-01,-5.228157594999421204e-02,-2.251882611892848551e+00,-5.761109202838662569e+00,-1.893890339694216385e+00,-2.489137622579579912e+01,-3.869371681194974144e+01,-2.991486672987073270e+00,-2.489244994388376853e+01,-3.875415792193551567e+01,-3.027600561391728728e+00,-2.609912976322471042e-03,1.792609493030848482e-03,6.770677870325703986e-03,2.652981502540553010e-03,3.862553933995553114e-03,0.000000000000000000e+00,8.360240933139972529e-05,-5.742201903562662462e-05,0.000000000000000000e+00,-2.935501774516958484e+00,-3.589793838907739953e+00,-5.685758730234582448e-01,5.970644632295026843e-01,6.806378682877752828e-01,7.091975669172339014e-01,9.231331811097069906e-01,7.313599833932262761e-01,6.350311003247810504e-02,-1.495290897558906318e-01,-1.922734966720879846e-01
9.000000000014551915e-02,0.000000000000000000e+00,-2.168973267286632978e-01,-7.806331413057311375e-01,9.549690549072907686e+01,6.804985774091497630e-01,-2.542396570489973695e-01,-5.180966731728753327e-01,5.914006591552100067e-01,6.778356790572236390e-01,7.229458103256628521e-01,9.358273387422449963e-01,-1.398480111221303557e-01,-3.923649346943324789e-01,-1.395533501765623963e-01,-2.590343579894291093e+00,-5.511605998749506519e+00,-1.922047496732561811e+00,-2.494969934100670983e+01,-3.869752192762385334e+01,-3.005670299773364196e+00,-2.493315966804132344e+01,-3.878367439586872223e+01,-3.044843133979277194e+00,-4.395450836567682713e-03,1.566641162666500406e-03,7.344172931589358980e-03,2.303398726846077587e-03,6.462536605148414513e-03,0.000000000000000000e+00,1.407989160907016993e-04,-5.018401656808595276e-05,0.000000000000000000e+00,-2.936272821478234540e+00,-3.593298828137947432e+00,-5.722425773676059757e-01,5.966991874285613173e-01,6.804571466557850501e-01,7.100842325851626224e-01,9.239518656079133141e-01,7.320023718200854290e-01,6.322325425728425596e-02,-1.496582741592978882e-01,-1.947684054277371013e-01
9.999999999990905053e-02,0.000000000000000000e+00,-3.382421299806271375e-01,-9.087608220236333967e-01,9.544484798692680272e+01,6.805317184107622097e-01,-2.543259547649218133e-01,-5.179843898837717120e-01,5.905910731149808246e-01,6.774351331955770217e-01,7.249109888161504589e-01,9.376418458609527828e-01,-1.753968348803870703e-01,-3.298261126622766826e-01,-1.291885336214352864e-01,-2.774603574385395621e+00,-5.845017251906078570e+00,-1.938226283660232863e+00,-2.493647824357835319e+01,-3.874274509195259952e+01,-3.025530034413647762e+00,-2.493043758984310188e+01,-3.882206289198649074e+01,-3.065548527934251588e+00,-3.719999701642912483e-03,1.978242923695522695e-03,7.502718218755842668e-03,2.888196705535771291e-03,5.431128176517499746e-03,0.000000000000000000e+00,1.191622493890726341e-04,-6.336878912153265191e-05,0.000000000000000000e+00,-2.937103943391512040e+00,-3.597072632210755128e+00,-5.761999964321544709e-01,5.963052567207069998e-01,6.802622478964611696e-01,7.110404547967001943e-01,9.248347737092894594e-01,7.326447602469152720e-01,6.294339848210306343e-02,-1.497874585626992605e-01,-1.972633141832726977e-01
1.100000000001273293e-01,0.000000000000000000e+00,-4.718879805335420841e-01,-1.074585078689286544e+00,9.538006303357951765e+01,6.814544009699896598e-01,-2.544022242951191060e-01,-5.170990331551480468e-01,5.962429856590962807e-01,6.778315144150107718e-01,7.297753002660365418e-01,9.400816338713071652e-01,-2.160337861828655059e-01,-2.475173679181485731e-01,-1.100675969611898120e-01,-3.406023422788451605e+00,-6.490967485105307411e+00,-1.935588129739291618e+00,-2.494266748345432205e+01,-3.872625322232360645e+01,-3.050224347415227300e+00,-2.494974826614222607e+01,-3.879586943742398120e+01,-3.087425574073989321e+00,-2.809943434004900237e-03,2.452525752489838340e-03,6.974533433375174930e-03,3.555340565961495267e-03,4.073476443145386192e-03,0.000000000000000000e+00,8.995190197491533673e-05,-7.851024807445878076e-05,0.000000000000000000e+00,-2.940839831909531910e+00,-3.594724513289826451e+00,-5.801905012257958516e-01,5.963012406721984737e-01,6.801054825656578373e-01,7.122487214659845023e-01,9.258180896899392831e-01,7.359828585528627176e-01,6.435890242467806610e-02,-1.459474311805925573e-01,-1.978912170316182717e-01
1.199999999998908606e-01,0.000000000000000000e+00,-6.705229580232868747e-01,-1.439056709766884268e+00,9.524703681800083643e+01,6.819556782140576701e-01,-2.585492497530394451e-01,-5.161333504370936298e-01,6.069986378220300072e-01,6.788573639016095562e-01,7.369295479514160752e-01,9.430153120863770111e-01,-2.784022429645895413e-01,-3.106867857528752830e-01,-1.372674628073543290e-01,-4.046030959016489348e+00,-6.595300252976696420e+00,-1.981804188210974482e+00,-2.502610840133178627e+01,-3.855488998591902572e+01,-3.070440532212552753e+00,-2.503579370747204536e+01,-3.864326375437678962e+01,-3.103413804834723067e+00,-3.547471467372179978e-03,3.178841388364900961e-03,6.181871216791176397e-03,4.576725436639907628e-03,5.107459264844842195e-03,0.000000000000000000e+00,1.133614002761062340e-04,-1.015816235183492587e-04,0.000000000000000000e+00,-2.949529686252430061e+00,-3.581594460556076776e+00,-5.840254554383184082e-01,5.969911480667052794e-01,6.800249876299749863e-01,7.138404623779414093e-01,9.269271904113673965e-01,7.414502154403581624e-01,6.711351902769069344e-02,-1.389722451072702425e-01,-1.970444291570767614e-01
1.300000000001091394e-01,0.000000000000000000e+00,-8.683776165871143204e-01,-1.804003180761403202e+00,9.511690095704928183e+01,6.826669466611754444e-01,-2.576693345203657781e-01,-5.154918811959469105e-01,6.177542899854527869e-01,6.798832133882549700e-01,7.440837956371207929e-01,9.459489903015803058e-01,-3.465822937372204926e-01,-4.127610100592503661e-01,-1.768547676013123571e-01,-3.930939750392591137e+00,-6.418531465901638811e+00,-2.063127937932983880e+00,-2.516379262379053117e+01,-3.825992249670331802e+01,-3.086435641371988226e+00,-2.517313797022665511e+01,-3.837464869387022048e+01,-3.115453633460534277e+00,-4.736906268395524484e-03,3.977429552958683390e-03,5.440330176406029707e-03,5.688467149918459594e-03,6.774660705169925981e-03,0.000000000000000000e+00,1.509480445748009414e-04,-1.267462726587788378e-04,0.000000000000000000e+00,-2.962853407356210056e+00,-3.558320897136849403e+00,-5.877170142435814704e-01,5.983302256892617521e-01,6.800158441816815946e-01,7.157909461225194780e-01,9.281539636364124490e-01,7.469175723281021861e-01,6.986813563082866496e-02,-1.319970590336308480e-01,-1.961976412824966709e-01
1.399999999998726707e-01,0.000000000000000000e+00,-1.065478124812149208e+00,-2.169439559377437821e+00,9.498965303492141743e+01,6.808210782785087956e-01,-2.544294955267955571e-01,-5.119607307015308084e-01,6.285099421483864024e-01,6.809090628748537544e-01,7.512380433225003262e-01,9.488826685166501518e-01,-3.357823918601172131e-01,-6.251089554658629810e-01,-2.310673273745029177e-01,-3.541838664838338424e+00,-6.577903675822847518e+00,-2.124414864898406030e+00,-2.539296303182318937e+01,-3.785671111005368772e+01,-3.100070820034873886e+00,-2.538044361154356920e+01,-3.800772934535454084e+01,-3.125388619556457748e+00,-7.205610129195597242e-03,3.870552457834552582e-03,4.746613353438645759e-03,5.499882939494092973e-03,1.023885159804303370e-02,0.000000000000000000e+00,2.287597276392475576e-04,-1.228801600686238991e-04,0.000000000000000000e+00,-2.980532512589884497e+00,-3.525471257057213315e+00,-5.912747791040118273e-01,6.002766065946015805e-01,6.800734505482304293e-01,7.180770362928234896e-01,9.294908203105287647e-01,7.523849292155977420e-01,7.262275223384123679e-02,-1.250218729603085888e-01,-1.953508534079551606e-01
1.500000000000909495e-01,0.000000000000000000e+00,-1.261850544816889075e+00,-2.535381042385363326e+00,9.486529070539026520e+01,6.782260248672817848e-01,-2.511206077522634139e-01,-5.075515612410623767e-01,6.392655943118091821e-01,6.819349123614990571e-01,7.583922910082051549e-01,9.518163467318533355e-01,-2.858852412148785715e-01,-8.913609275082305938e-01,-2.923905032854505204e-01,-3.745479345706256513e+00,-6.759505363775764053e+00,-1.911201956049427775e+00,-2.570365730141933724e+01,-3.735875582054026012e+01,-3.115758329112792158e+00,-2.565858744800540236e+01,-3.755059488185767691e+01,-3.137614572642019706e+00,-1.031400846839530122e-02,3.308000954363421366e-03,4.097636419918522684e-03,4.670991756249522411e-03,1.456367431400368111e-02,0.000000000000000000e+00,3.259408791194344621e-04,-1.045386711187076253e-04,0.000000000000000000e+00,-3.002324392155994559e+00,-3.483551006822299456e+00,-5.947062176302809755e-01,6.027911239630494578e-01,6.801935018328165716e-01,7.206770886186367742e-01,9.309306608201962652e-01,7.578522861033417657e-01,7.537736883697915280e-02,-1.180466868866690278e-01,-1.945040655333750701e-01
1.599999999998544808e-01,0.000000000000000000e+00,-1.473814009921623258e+00,-2.927247369486793538e+00,9.473656494326912991e+01,6.756309714561729018e-01,-2.478117199778817059e-01,-5.031423917807945623e-01,6.500212464747429086e-01,6.829607618480978415e-01,7.655465386935845773e-01,9.547500249469231814e-01,-3.579210191207996550e-01,-8.483581807424198651e-01,-3.048786490666798299e-01,-4.373424082699600035e+00,-6.222719456391765824e+00,-1.433323079297563529e+00,-2.590620938532905626e+01,-3.679304899751087277e+01,-3.130052711492336659e+00,-2.587478061911646776e+01,-3.698573696463183325e+01,-3.148670645211635755e+00,-9.848521787926093132e-03,4.155076281675148218e-03,3.490513965485921889e-03,5.831179120611556903e-03,1.382128527264725286e-02,0.000000000000000000e+00,3.095619528752636376e-04,-1.306037145267775312e-04,0.000000000000000000e+00,-3.028017346323483849e+00,-3.433011483999963254e+00,-5.980170223031104904e-01,6.058371369611545987e-01,6.803719707744035894e-01,7.235708547339434471e-01,9.324668434273586382e-01,7.633196429908370995e-01,7.813198543999183565e-02,-1.110715008133467685e-01,-1.936572776588335043e-01
1.700000000000727596e-01,0.000000000000000000e+00,-1.790276403485601131e+00,-3.484527582294798087e+00,9.456600147888329388e+01,6.730359180449458911e-01,-2.445028322033495349e-01,-4.987332223203261861e-01,6.607768986381656884e-01,6.839866113347432552e-01,7.727007863792894060e-01,9.576837031621264762e-01,-4.299567970299965070e-01,-8.053554339746534785e-01,-3.173667948484770740e-01,-4.796288675222207587e+00,-5.932958708485724486e+00,-1.263041513335713795e+00,-2.613940902225958496e+01,-3.613725952987119427e+01,-3.144355346218635994e+00,-2.612160854841584268e+01,-3.633082529505948344e+01,-3.159943818491051104e+00,-9.375054122869850431e-03,5.005079835071734803e-03,2.922546668594683782e-03,6.982163041450673187e-03,1.307834411543676301e-02,0.000000000000000000e+00,2.928960265927761132e-04,-1.563690168887668132e-04,0.000000000000000000e+00,-3.057426300070750891e+00,-3.374256707134635658e+00,-6.012114163942660072e-01,6.093803678333494789e-01,6.806050898421668327e-01,7.267393921509424093e-01,9.340931547396886803e-01,7.687869998785812342e-01,8.088660204312975166e-02,-1.040963147397073185e-01,-1.928104897842534693e-01
1.799999999998362910e-01,0.000000000000000000e+00,-2.105442528983094697e+00,-4.042866582351142490e+00,9.440226452288818848e+01,6.704408646338368971e-01,-2.411939444289678547e-01,-4.943240528600583161e-01,6.715325508010994149e-01,6.850124608213420396e-01,7.798550340646688284e-01,9.606173813771963221e-01,-5.375869388009049121e-01,-9.132307999973202639e-01,-3.165753640986616047e-01,-5.045159190894161760e+00,-6.329996472271746555e+00,-1.378644108554217595e+00,-2.644174205143975342e+01,-3.536114111468042864e+01,-3.144054145288952995e+00,-2.642796469518468783e+01,-3.558632135206944014e+01,-3.156808535216922174e+00,-1.065500199223528774e-02,6.272225930115496971e-03,2.391209295083066965e-03,8.698965368176235502e-03,1.477744812782864903e-02,0.000000000000000000e+00,3.306652851727689773e-04,-1.946510547216309575e-04,0.000000000000000000e+00,-3.090389105121903679e+00,-3.307649291450755147e+00,-6.042924143282825122e-01,6.133887494998061518e-01,6.808893344846980167e-01,7.301649800399395707e-01,9.358037820852461719e-01,7.742543567660766790e-01,8.364121864614243451e-02,-9.712112866638505926e-02,-1.919637019097119035e-01
1.900000000000545697e-01,0.000000000000000000e+00,-2.419410467057824921e+00,-4.602319485556470191e+00,9.424535639019882183e+01,6.678458112226098864e-01,-2.378850566544356837e-01,-4.899148833995899399e-01,6.822882029645221946e-01,6.860383103079874534e-01,7.870092817503736571e-01,9.635510595923996169e-01,-6.498559752898732667e-01,-1.040769607192198354e+00,-3.140532504351724041e-01,-5.249910130348276915e+00,-6.188234152258982768e+00,-1.282123010162557808e+00,-2.677779410439712393e+01,-3.449979428439570484e+01,-3.137465989812084910e+00,-2.676664512530086171e+01,-3.476042552980972999e+01,-3.147569075910672698e+00,-1.216525860762410205e-02,7.595980841945504207e-03,1.894139470755123230e-03,1.047515282007595999e-02,1.677636445670240353e-02,0.000000000000000000e+00,3.748149040566329474e-04,-2.340342217390697487e-04,0.000000000000000000e+00,-3.126763351065814600e+00,-3.233515587433440253e+00,-6.072620427721242553e-01,6.178322829834195229e-01,6.812214074595412949e-01,7.338310404410178789e-01,9.375932876688468642e-01,7.797217136538207027e-01,8.639583524928035052e-02,-9.014594259274560928e-02,-1.911169140351318685e-01
1.999999999998181011e-01,0.000000000000000000e+00,-2.732278144707758205e+00,-5.162942164816090695e+00,9.409528002911719113e+01,6.652507578115008924e-01,-2.345761688800540035e-01,-4.855057139393220700e-01,6.930438551274558101e-01,6.870641597945862378e-01,7.941635294357530794e-01,9.664847378074694628e-01,-6.486890568660810263e-01,-1.076653294857824239e+00,-3.170446257288094816e-01,-5.366271975296126762e+00,-5.476822128172765147e+00,-1.118952715233376471e+00,-2.712976556713740450e+01,-3.361461459616475622e+01,-3.154541408292981686e+00,-2.711447472649284762e+01,-3.388070818513470073e+01,-3.159836894140103158e+00,-1.260249939935575471e-02,7.593069643281023101e-03,9.928044423238259128e-04,1.041326717114715410e-02,1.728328586921878615e-02,0.000000000000000000e+00,3.853089158535058316e-04,-2.321505710527817538e-04,0.000000000000000000e+00,-3.166423617440904170e+00,-3.152150144251753439e+00,-6.101215279082743415e-01,6.226829040315003949e-01,6.815982241733418157e-01,7.377220645568350887e-01,9.394565843950952733e-01,7.851890705413162586e-01,8.915045185229297786e-02,-8.317075651942340553e-02,-1.902701261605901917e-01
2.100000000000363798e-01,0.000000000000000000e+00,-3.044143414269788739e+00,-5.724791304715963314e+00,9.395203909286500732e+01,6.626557044002738817e-01,-2.312672811055218325e-01,-4.810965444788537493e-01,7.047114544724142338e-01,6.885018524221526715e-01,7.994347659536095163e-01,9.683146560351946208e-01,-6.104726132376003811e-01,-1.082601335898027983e+00,-3.218367717592028887e-01,-5.720382791198508343e+00,-4.365100917336715902e+00,-1.080152847506773428e+00,-2.751333372268624444e+01,-3.267394922801450008e+01,-3.182151183902659497e+00,-2.749185361643679570e+01,-3.293561648172740774e+01,-3.177175653050641202e+00,-1.267571396213709907e-02,7.147761572545337401e-03,-9.328188716599650990e-04,9.757210316843196313e-03,1.730326421627894143e-02,0.000000000000000000e+00,3.844072332013844396e-04,-2.167650088896516582e-04,0.000000000000000000e+00,-3.210273491628869991e+00,-3.063981834144956284e+00,-6.124208725996012070e-01,6.279731725629209560e-01,6.820434599733286030e-01,7.417021027317565185e-01,9.413177284413388746e-01,7.902406822208427606e-01,9.254474606592333341e-02,-7.633514401566177110e-02,-1.872680575471186160e-01
2.199999999997999112e-01,0.000000000000000000e+00,-3.444618523295831736e+00,-6.363920287397627717e+00,9.380557111086875466e+01,6.600606509891649987e-01,-2.279583933311401522e-01,-4.766873750185858793e-01,7.177294414940119660e-01,6.905493916654305009e-01,8.019176884893201018e-01,9.685101551694700328e-01,-6.622965200335143576e-01,-1.145290758390591801e+00,-3.164777048816095339e-01,-6.350483208803182400e+00,-2.776959333352043480e+00,-8.703521358926287199e-01,-2.794303153285942898e+01,-3.162764970336031212e+01,-3.187825435511542072e+00,-2.792231140803882639e+01,-3.190546444492942868e+01,-3.169795110710826869e+00,-1.338455131072321599e-02,7.739992390891905008e-03,-3.380348295788771981e-03,1.053766660970627267e-02,1.822249070927776937e-02,0.000000000000000000e+00,4.024464214183261679e-04,-2.327259365821214880e-04,0.000000000000000000e+00,-3.259724624021638650e+00,-2.969487105309119190e+00,-6.135128264973349621e-01,6.337618249586000063e-01,6.825920331532674412e-01,7.455855874053489707e-01,9.430714500253428723e-01,7.946766692045581504e-01,9.688625825436569805e-02,-6.970620842578423293e-02,-1.810745052496738339e-01
2.300000000000181899e-01,0.000000000000000000e+00,-3.905573855625030344e+00,-7.056652750233127769e+00,9.366297147339406592e+01,6.574655975779379879e-01,-2.246495055566079813e-01,-4.722782055581175031e-01,7.307474285162016692e-01,6.925969309088013670e-01,8.044006110251435970e-01,9.687056543037543266e-01,-7.707255982702087005e-01,-1.243651472809043756e+00,-3.047369308663065435e-01,-6.581519232432807343e+00,-2.081238393984744750e+00,-6.193623432208692492e-01,-2.841680308772252417e+01,-3.049340482850880463e+01,-3.172663561691116296e+00,-2.840120380345740969e+01,-3.080004700557788766e+01,-3.142420385963247575e+00,-1.447730132619523373e-02,8.971988511192127008e-03,-5.670029168131701311e-03,1.220554044690637385e-02,1.969499700969281827e-02,0.000000000000000000e+00,4.314492053905132811e-04,-2.673811387017652088e-04,0.000000000000000000e+00,-3.314653618376278477e+00,-2.868865289288113019e+00,-6.134522354616330775e-01,6.400167189405580048e-01,6.832372791739722562e-01,7.493787456040261752e-01,9.447246771455730663e-01,7.991126561884751567e-01,1.012277704430055159e-01,-6.307727283560521370e-02,-1.748809529519474437e-01
2.399999999997817213e-01,0.000000000000000000e+00,-4.366004216415988459e+00,-7.751174419127836224e+00,9.353215982662052852e+01,6.548705441668289939e-01,-2.213406177822263010e-01,-4.678690360978496332e-01,7.437654155377994014e-01,6.946444701520791964e-01,8.068835335608541826e-01,9.689011534380297386e-01,-8.421848474617998903e-01,-1.249985205309944281e+00,-3.170949190495191972e-01,-6.695767241874276188e+00,-2.172815567242435186e+00,-4.956324782527248285e-01,-2.893281391704911698e+01,-2.931035661374690093e+01,-3.165144935385244107e+00,-2.892632045315179568e+01,-2.962519903866843762e+01,-3.123476552307870691e+00,-1.446632404746811193e-02,9.746770489358666523e-03,-7.812041617702328994e-03,1.327307184730795037e-02,1.970012104605505313e-02,0.000000000000000000e+00,4.271915776865385216e-04,-2.878228255523185329e-04,0.000000000000000000e+00,-3.374955252636281156e+00,-2.762293995384324408e+00,-6.122895841854140153e-01,6.467077851831540825e-01,6.839729633124705943e-01,7.530874027544796068e-01,9.462838909929852660e-01,8.035486431721906575e-01,1.055692826314478805e-01,-5.644833724572767553e-02,-1.686874006545026616e-01
2.500000000000000000e-01,0.000000000000000000e+00,-4.826144680919211893e+00,-8.447596078133624786e+00,9.341317966318850097e+01,6.522754907556019832e-01,-2.180317300076941300e-01,-4.634598666373812570e-01,7.567834025599892156e-01,6.966920093954501736e-01,8.093664560966775667e-01,9.690966525723140323e-01,-9.119466011073799061e-01,-1.252093454592382082e+00,-3.305594187491927016e-01,-7.016454171209145940e+00,-1.492202208434274313e+00,-3.891269595569490924e-01,-2.949343169420526678e+01,-2.806436619315292447e+01,-3.151946819441111103e+00,-2.949633502885614078e+01,-2.838616408560832127e+01,-3.099590075082538476e+00,-1.437994600395968957e-02,1.047345374606071730e-02,-9.815909226357151171e-03,1.430177769896472800e-02,1.963619604937866248e-02,0.000000000000000000e+00,4.206866257347608037e-04,-3.064018401046927713e-04,0.000000000000000000e+00,-3.440539459027212033e+00,-2.649932065743142662e+00,-6.100714341298857368e-01,6.538068936222922733e-01,6.847932529418837566e-01,7.567170085840843052e-01,9.477551547669910148e-01,8.079846301561077748e-01,1.099107948200877538e-01,-4.981940165554871180e-02,-1.624938483567761049e-01
2.600000000002182787e-01,0.000000000000000000e+00,-5.299836484632995948e+00,-9.146281065159309165e+00,9.330199378742209149e+01,6.496804373443749725e-01,-2.147228422331619868e-01,-4.590506971769128808e-01,7.698013895821789188e-01,6.987395486388211507e-01,8.118493786325010619e-01,9.692921517065983261e-01,-9.930317772241212815e-01,-1.224248967669566923e+00,-3.222899443996977698e-01,-7.083489376691260553e+00,-1.239361651381077484e-01,-3.561134766059862455e-01,-3.006412909761792562e+01,-2.677329515157790141e+01,-3.134721473093610378e+00,-3.008083372861364779e+01,-2.709800930491686088e+01,-3.072365692098240952e+00,-1.392813118466632721e-02,1.129760141031461301e-02,-1.169054137127477876e-02,1.549522403875640969e-02,1.910312687705136014e-02,0.000000000000000000e+00,4.036211163157207849e-04,-3.273914089739017922e-04,0.000000000000000000e+00,-3.511328766493627906e+00,-2.531922117008139850e+00,-6.068408101892465156e-01,6.612877283864831979e-01,6.856926915990199101e-01,7.602726613508592468e-01,9.491441406329911290e-01,8.124206171400247811e-01,1.142523070087275161e-01,-4.319046606536974808e-02,-1.563002960590497148e-01
2.699999999999818101e-01,0.000000000000000000e+00,-5.968754772226371408e+00,-9.851025284410599880e+00,9.314678479482145690e+01,6.470853839332659785e-01,-2.114139544587802788e-01,-4.546415277166450108e-01,7.828193766037766510e-01,7.007870878820989802e-01,8.143323011682116475e-01,9.694876508408737381e-01,-1.076377291027816874e+00,-1.190425431679151380e+00,-3.096820184176137802e-01,-7.302330231346171985e+00,1.141419615268431942e+00,-3.473355944976124765e-01,-3.067222012683920696e+01,-2.542768896888856389e+01,-3.112778820406143065e+00,-3.070359243345121314e+01,-2.575423727827613618e+01,-3.041068870793460555e+00,-1.339337151191351966e-02,1.211022594282760469e-02,-1.344427283721045391e-02,1.671005931918459822e-02,1.848058273268650409e-02,0.000000000000000000e+00,3.844321360527793211e-04,-3.476017986316470420e-04,0.000000000000000000e+00,-3.587256139880479200e+00,-2.408392724883532399e+00,-6.026375424889607313e-01,6.691256707940932413e-01,6.866661747244432457e-01,7.637591305107851447e-01,9.504561549413376165e-01,8.168566041237401709e-01,1.185938191971698807e-01,-3.656153047549220991e-02,-1.501067437616049327e-01
2.800000000002000888e-01,0.000000000000000000e+00,-6.638197505361714157e+00,-1.055866320820520876e+01,9.300846352217998003e+01,6.444903305220390788e-01,-2.081050666842481356e-01,-4.502323582561766346e-01,7.958373636259663542e-01,7.028346271254699573e-01,8.168152237040351427e-01,9.696831499751581429e-01,-1.158488838262831333e+00,-1.176069002584803513e+00,-3.401260265610658862e-01,-8.046028074153074527e+00,1.804087232513868599e+00,-3.378976043481875524e-01,-3.137138630016881180e+01,-2.398543429743281408e+01,-3.083147120319577716e+00,-3.141545941227153094e+01,-2.431654768360553831e+01,-3.002686280626235327e+00,-1.306376574743987884e-02,1.286848541269847851e-02,-1.508490087346312999e-02,1.789185247031191764e-02,1.816336281729482791e-02,0.000000000000000000e+00,3.713994413138403021e-04,-3.658476725034766081e-04,0.000000000000000000e+00,-3.668263159109299121e+00,-2.279460300487471169e+00,-5.974985689082533691e-01,6.772976898965682446e-01,6.877089269671582406e-01,7.671808779232612840e-01,9.516961618198507278e-01,8.212925911076573993e-01,1.229353313858096985e-01,-2.993259488531330170e-02,-1.439131914638784870e-01
2.899999999999636202e-01,0.000000000000000000e+00,-7.308581486699988972e+00,-1.126932252721272398e+01,9.288715182855337105e+01,6.418952771109300848e-01,-2.047961789098664276e-01,-4.458231887959087647e-01,8.088553506475640864e-01,7.048821663687477868e-01,8.192981462397457282e-01,9.698786491094335549e-01,-1.239990684694058931e+00,-1.171331238141324338e+00,-3.918419226667814170e-01,-8.747418279138088337e+00,2.185701632477377476e+00,-3.759671521512303327e-01,-3.213631680787219125e+01,-2.246150868603200479e+01,-3.046944563829827146e+00,-3.219214789712282254e+01,-2.279828386040828292e+01,-2.958297205340784330e+00,-1.282515611257138699e-02,1.357692306966105239e-02,-1.661971986121606182e-02,1.905062132226597801e-02,1.799577056199980207e-02,0.000000000000000000e+00,3.611578409655504234e-04,-3.823276831685323927e-04,0.000000000000000000e+00,-3.754298489288922180e+00,-2.145230700893154374e+00,-5.914582032072475126e-01,6.857822400805875240e-01,6.888164809529405685e-01,7.705420776889074785e-01,9.528688052447802370e-01,8.257285780913727891e-01,1.272768435742520632e-01,-2.330365929543576353e-02,-1.377196391664337050e-01
3.000000000001818989e-01,0.000000000000000000e+00,-7.980329223289745144e+00,-1.198313474539801682e+01,9.278297192426965978e+01,6.393002236997030741e-01,-2.014872911353342844e-01,-4.414140193354404440e-01,8.218733376697537896e-01,7.069297056121186529e-01,8.217810687755692234e-01,9.700741482437178487e-01,-1.286821911021891696e+00,-1.178226444838382347e+00,-3.927215487609606592e-01,-9.080048228126445409e+00,3.198751850290105558e+00,-4.221239113625165351e-01,-3.290457985912464522e+01,-2.093821152908315497e+01,-3.016969909972498698e+00,-3.296666311049710885e+01,-2.127817852585263836e+01,-2.912821076574461543e+00,-1.269609473104606027e-02,1.386627583847916019e-02,-1.952595615312990168e-02,1.966614437552085745e-02,1.800650981521412231e-02,0.000000000000000000e+00,3.541666665143384553e-04,-3.868097076082430532e-04,0.000000000000000000e+00,-3.845316599395375956e+00,-2.005800610591482958e+00,-5.845483730175744519e-01,6.945591652744692590e-01,6.899846574220106499e-01,7.738466347080243946e-01,9.539784296883468961e-01,8.301645650752897954e-01,1.316183557628918810e-01,-1.667472370525674430e-02,-1.315260868687073148e-01
3.099999999999454303e-01,0.000000000000000000e+00,-8.663033564831126299e+00,-1.269469983478092701e+01,9.269340115748136100e+01,6.367051702885940800e-01,-1.981784033609526041e-01,-4.370048498751725186e-01,7.385284607505648857e-01,6.351095631257361873e-01,7.382941405596514794e-01,8.714824117627985034e-01,-1.331440119043628911e+00,-1.185864181607691581e+00,-3.903563065574304769e-01,-9.430510927063441073e+00,4.548967101087685982e+00,-3.469221812088845169e-01,-3.312693666589521513e+01,-1.936746585650792696e+01,-2.958776953597830328e+00,-3.319663131820748703e+01,-1.971110944182706959e+01,-2.832155925444378219e+00,-1.252117777690358799e-02,1.405826964707340525e-02,-2.373907189473252466e-02,2.039214400611409281e-02,1.816252403480735772e-02,0.000000000000000000e+00,3.511983315955650737e-04,-3.943112168153966907e-04,0.000000000000000000e+00,-3.872428428419795843e+00,-1.861665869388764882e+00,-5.710161989499635826e-01,6.973948777057582538e-01,6.864455971441696391e-01,7.715537471707500927e-01,9.486580127694426157e-01,7.458536440496876807e-01,1.183035844139878612e-01,-1.488468678915916277e-02,-1.180692642230744549e-01
3.200000000001637090e-01,0.000000000000000000e+00,-9.595433680589778191e+00,-1.326054380307895997e+01,9.255131041972077810e+01,6.341101168773670693e-01,-1.948695155864204331e-01,-4.325956804147041979e-01,6.536167079950618852e-01,5.620883201231565707e-01,6.534093285913675775e-01,7.712843787673372420e-01,-1.465167869669450562e+00,-1.119694103282112385e+00,-3.805788808335439088e-01,-9.735182283124331093e+00,5.475809939275630533e+00,-2.459960801582017353e-01,-3.277678964626846891e+01,-1.776554922957037164e+01,-2.867383730161801036e+00,-3.287380747514009016e+01,-1.811073822625905905e+01,-2.719612279538794475e+00,-1.153376376172068896e-02,1.509242571743119217e-02,-2.770438008193390825e-02,2.264943685208196944e-02,1.730889777951396050e-02,0.000000000000000000e+00,3.299189005490322721e-04,-4.317130645452021010e-04,0.000000000000000000e+00,-3.837832537328728755e+00,-1.716080453345175005e+00,-5.514793346846040833e-01,6.945714915513179211e-01,6.784254214158261798e-01,7.639342574148791920e-01,9.372186523367485034e-01,6.600996838692307911e-01,1.047017190239374895e-01,-1.317333115203217497e-02,-1.044943396202431818e-01
3.299999999999272404e-01,0.000000000000000000e+00,-1.053046561730952924e+01,-1.383064157814390605e+01,9.242979069614882803e+01,6.315150634662580753e-01,-1.915606278120387529e-01,-4.281865109544363279e-01,5.687049552434201294e-01,4.890670771238975756e-01,5.685245166269439210e-01,6.710863457764325579e-01,-1.607312117524194894e+00,-1.046552793220143718e+00,-3.701013659806794975e-01,-9.794171855482387556e+00,6.090642164164722594e+00,-2.903770212995023248e-01,-3.193765426121430195e+01,-1.617710044533282243e+01,-2.749319726274571885e+00,-3.206556008539848790e+01,-1.652311405300840974e+01,-2.581761907694926972e+00,-1.047034944000304127e-02,1.608052612219203203e-02,-3.141395358886373695e-02,2.525030531637396242e-02,1.644097451291368778e-02,0.000000000000000000e+00,3.096198634704361210e-04,-4.755190197820587886e-04,0.000000000000000000e+00,-3.746161214574489584e+00,-1.571632546673500386e+00,-5.266898463641896955e-01,6.864539791411942149e-01,6.662131308830188114e-01,7.513316940772751806e-01,9.200549775061839242e-01,5.743457236926735598e-01,9.109985363450559537e-02,-1.146197551498301381e-02,-9.091941501802941472e-02
3.400000000001455192e-01,0.000000000000000000e+00,-1.146870976806095221e+01,-1.440508052189690780e+01,9.232903796947718433e+01,6.289200100550311756e-01,-1.882517400375065819e-01,-4.237773414939679517e-01,4.837932024879170734e-01,4.160458341213179589e-01,4.836397046586601300e-01,5.708883127809714075e-01,-1.705177609573961695e+00,-9.446284635108072036e-01,-3.673612915349503960e-01,-9.796491409814134244e+00,6.351798506809092082e+00,-2.362411707657713633e-01,-3.066251631198786143e+01,-1.463714130539741909e+01,-2.621347599018330587e+00,-3.081977340019212619e+01,-1.497364032255216415e+01,-2.435279495006846595e+00,-9.136954394900359891e-03,1.649339465801969579e-02,-3.488428551608459272e-02,2.740615292551830395e-02,1.518236691792055476e-02,0.000000000000000000e+00,2.830664519996900128e-04,-5.109718737221727747e-04,0.000000000000000000e+00,-3.603014772099383478e+00,-1.430321145450875964e+00,-4.974170481535837851e-01,6.733837746389904622e-01,6.500790876683667507e-01,7.340674305967844759e-01,8.975361665716006243e-01,4.885917635122166702e-01,7.749798824445519596e-02,-9.750619877856081530e-03,-7.734449041519825263e-02
3.499999999999090505e-01,0.000000000000000000e+00,-1.241075420492980008e+01,-1.498395157527674293e+01,9.224923791607808710e+01,6.263249566439221816e-01,-1.849428522631249017e-01,-4.193681720337000818e-01,3.988814497362753175e-01,3.430245911220589083e-01,3.987548926942364735e-01,4.706902797900666124e-01,-1.784066491985844216e+00,-8.303685539586859177e-01,-3.679372629783152493e-01,-9.817729281329169666e+00,6.375552152555960639e+00,2.121137904795444562e-01,-2.900328461743859876e+01,-1.315363081925015365e+01,-2.480241752524711796e+00,-2.919027938677244549e+01,-1.347544132913001391e+01,-2.276857147196813980e+00,-7.728174804127378381e-03,1.660416648309023802e-02,-3.813080527437780892e-02,2.953450907183923294e-02,1.374642015868174708e-02,0.000000000000000000e+00,2.542071721674608984e-04,-5.461701261738867788e-04,0.000000000000000000e+00,-3.414713283624123186e+00,-1.293651534371683898e+00,-4.644361913710784995e-01,6.556802920901839693e-01,6.302762174264966433e-01,7.124421140707491995e-01,8.700075884062067333e-01,4.028378033356593280e-01,6.389612285502327405e-02,-8.039264240806864859e-03,-6.376956581298443005e-02
3.600000000001273293e-01,0.000000000000000000e+00,-1.335868294627170272e+01,-1.556610139535498938e+01,9.218988536198847328e+01,6.237299032326951709e-01,-1.816339644885927307e-01,-4.149590025732317056e-01,3.139696969807722615e-01,2.700033481194792917e-01,3.138700807259526826e-01,3.704922467946054621e-01,-1.888903600363759816e+00,-7.876599070430058136e-01,-3.723134158141533923e-01,-9.694054580411767930e+00,6.535422423030630590e+00,6.027825812959592966e-01,-2.704192426876600663e+01,-1.170522602930054390e+01,-2.304002389233709813e+00,-2.725945141921234338e+01,-1.202653578689437097e+01,-2.084418075967998885e+00,-7.017987989127946052e-03,1.682998291704291757e-02,-4.116794718530402547e-02,3.243207481173138174e-02,1.352395380394249939e-02,0.000000000000000000e+00,2.484850975396777815e-04,-5.958972789938011150e-04,0.000000000000000000e+00,-3.188089317426129554e+00,-1.162717123601340496e+00,-4.285192845394855121e-01,6.336423455649378145e-01,6.070411338735771656e-01,6.867370019582647034e-01,8.377923380027131328e-01,3.170838431552024383e-01,5.029425746497287464e-02,-6.327908603679904820e-03,-5.019464121015326796e-02
3.699999999998908606e-01,0.000000000000000000e+00,-1.461975932668415901e+01,-1.589548283445199672e+01,9.201204422745381351e+01,6.211348498215861769e-01,-1.783250767142110504e-01,-4.105498331129638356e-01,2.290579442291305057e-01,1.969821051202202966e-01,2.289852687615290261e-01,2.702942138037006670e-01,-2.008091016648781757e+00,-7.845216975024006389e-01,-3.787912064720281302e-01,-9.478568909555173505e+00,6.911759073733575676e+00,6.801109525284476653e-01,-2.482650676987947946e+01,-1.031098124005092664e+01,-2.104136061621313836e+00,-2.507759757490073582e+01,-1.063975768480519335e+01,-1.869396808424304668e+00,-6.655538761827334629e-03,1.703576541111831780e-02,-4.400921465750807365e-02,3.602042290760911619e-02,1.407247136207590010e-02,0.000000000000000000e+00,2.573300427596924927e-04,-6.586715814548946453e-04,0.000000000000000000e+00,-2.930315785971776776e+00,-1.038269479239849247e+00,-3.904277237127239397e-01,6.075494777136135616e-01,5.805951907942665802e-01,6.572152125774046727e-01,8.011926729842174799e-01,2.313298829786451238e-01,3.669239207554092497e-02,-4.616552966630715904e-03,-3.661971660793944539e-02
3.800000000001091394e-01,0.000000000000000000e+00,-1.588578309759060225e+01,-1.623227962619122877e+01,9.185840340426163664e+01,6.185397964103591661e-01,-1.750161889396788795e-01,-4.061406636524954594e-01,1.441461914736273942e-01,1.239608621176406800e-01,1.441004567932451241e-01,1.700961808082395166e-01,-2.148945570092875013e+00,-6.447949786102032954e-01,-3.690606026846429133e-01,-9.272852186970341748e+00,7.398198310266276501e+00,8.738030303097384932e-01,-2.234141596182504585e+01,-9.036991055277370677e+00,-1.933180231029983931e+00,-2.264343469788331120e+01,-9.346806445667017016e+00,-1.684263425669508152e+00,-5.177534270384697400e-03,1.725546833247497414e-02,-4.666724022409864808e-02,4.058592988324552508e-02,1.217788116886156513e-02,0.000000000000000000e+00,2.219959011296062691e-04,-7.398585971303572352e-04,0.000000000000000000e+00,-2.648763824847286230e+00,-9.207781422999424814e-01,-3.509064565082444798e-01,5.776632026377406248e-01,5.511454661998478333e-01,6.241228949521191449e-01,7.604913574678187071e-01,1.455759227981881787e-01,2.309052668549055332e-02,-2.905197329503839132e-03,-2.304479200510828329e-02
3.899999999998726707e-01,0.000000000000000000e+00,-1.715760747161080957e+01,-1.657654119994842645e+01,9.172922075311160484e+01,6.159447429992501721e-01,-1.717073011652971992e-01,-4.017314941922276450e-01,5.923443872198574933e-02,5.093961911838162937e-02,5.921564482882146763e-02,6.989814781733483251e-02,-2.293118153758165967e+00,-4.841515691824790912e-01,-3.568479015938482157e-01,-8.716780242878995111e+00,7.677763646749918180e+00,1.201532014431361706e+00,-1.970571028988626594e+01,-7.854228177933257449e+00,-1.764698425141439930e+00,-2.006606569618335101e+01,-8.136974710965690250e+00,-1.506951089764771767e+00,-3.655449688462095777e-03,1.731354099485053061e-02,-4.832279925706532003e-02,4.599128158337376093e-02,9.710250259373217480e-03,0.000000000000000000e+00,1.767763562245334486e-04,-8.372772028771683934e-04,0.000000000000000000e+00,-2.350886300930205230e+00,-8.104816230200375671e-01,-3.106794415703542089e-01,5.442281686064819324e-01,5.188856830167505318e-01,5.876903232141695854e-01,7.159529192607668735e-01,5.982196262163091971e-02,9.488661296058742423e-03,-1.193841692454622461e-03,-9.469867402894460717e-03
4.000000000000909495e-01,0.000000000000000000e+00,-1.843608508331868379e+01,-1.692831974850175669e+01,9.162471958425700791e+01,6.133496895880232724e-01,-1.683984133907650282e-01,-3.973223247317592133e-01,0.000000000000000000e+00,0.000000000000000000e+00,0.000000000000000000e+00,0.000000000000000000e+00,-2.381567979748313135e+00,-3.751841089371582005e-01,-3.646052602523242037e-01,-7.867987785157451341e+00,7.805439829970377552e+00,1.374922283527906908e+00,-1.713812969615697668e+01,-6.748606913163786913e+00,-1.580758259853905834e+00,-1.754969920949522688e+01,-7.007050382512838738e+00,-1.329408199132011026e+00,-2.650030894525695537e-03,1.682168453675973729e-02,-4.712343004347808312e-02,5.105814440054945447e-02,8.043526186865072522e-03,0.000000000000000000e+00,1.464334298838561993e-04,-9.295200928526644452e-04,0.000000000000000000e+00,-2.057432966677686270e+00,-7.093118920417627038e-01,-2.718983580375363696e-01,5.091292531823288225e-01,4.854211808950720242e-01,5.497884024023447225e-01,6.697789569222253325e-01,0.000000000000000000e+00,0.000000000000000000e+00,0.000000000000000000e+00,0.000000000000000000e+00
4.099999999998544808e-01,0.000000000000000000e+00,-1.972206594392184442e+01,-1.728767037504348636e+01,9.154508852988109879e+01,6.107546361769142784e-01,-1.650895256163833480e-01,-3.929131552714913989e-01,0.000000000000000000e+00,0.000000000000000000e+00,0.000000000000000000e+00,0.000000000000000000e+00,-2.461661955227904208e+00,-2.739656640753739825e-01,-3.753572092864169707e-01,-7.179305612534845338e+00,7.961057682352344678e+00,1.412209339592266133e+00,-1.488164209940732619e+01,-5.776923068908451420e+00,-1.413153888091620347e+00,-1.534545193565367605e+01,-6.009255906404560754e+00,-1.178014150598166498e+00,-1.810296336791672109e-03,1.626604426875356141e-02,-4.408429796432253994e-02,5.641354921056099259e-02,6.278431301055407282e-03,0.000000000000000000e+00,1.142996502211955553e-04,-1.027015926959239447e-03,0.000000000000000000e+00,-1.800610438155687776e+00,-6.207708427948217533e-01,-2.379581884460384433e-01,4.762939726359996517e-01,4.541149054096363935e-01,5.143308907367674099e-01,6.265828926279328748e-01,0.000000000000000000e+00,0.000000000000000000e+00,0.000000000000000000e+00,0.000000000000000000e+00
4.200000000000727596e-01,0.000000000000000000e+00,-2.118274934068787729e+01,-1.742564822903168320e+01,9.134005291553756933e+01,6.081595827656872677e-01,-1.617806378418511770e-01,-3.885039858110229671e-01,0.000000000000000000e+00,0.000000000000000000e+00,0.000000000000000000e+00,0.000000000000000000e+00,-2.546694535968274220e+00,-2.351691832306165852e-01,-3.274871047606259800e-01,-6.513574783189027606e+00,7.647717576159997144e+00,1.438774523024139995e+00,-1.290211489004010659e+01,-5.020198238394373291e+00,-1.249767649251428026e+00,-1.341948963613926260e+01,-5.240117405699503905e+00,-1.029792782367800585e+00,-1.453720723459532224e-03,1.574263503576369891e-02,-4.124116867583892815e-02,6.238566834583027243e-02,5.760874130358524352e-03,0.000000000000000000e+00,1.048774552900858166e-04,-1.135739124762779944e-03,0.000000000000000000e+00,-1.575846213464089374e+00,-5.432820788538319512e-01,-2.082546575757667218e-01,4.455763383294358837e-01,4.248276660176872332e-01,4.811601409017797204e-01,5.861726727547473814e-01,0.000000000000000000e+00,0.000000000000000000e+00,0.000000000000000000e+00,0.000000000000000000e+00
4.299999999998362910e-01,0.000000000000000000e+00,-2.265680585544830450e+01,-1.756649898903939899e+01,9.115558307808298366e+01,6.055645293545782737e-01,-1.584717500674694968e-01,-3.840948163507551527e-01,0.000000000000000000e+00,0.000000000000000000e+00,0.000000000000000000e+00,0.000000000000000000e+00,-2.633490377721125153e+00,-2.186596052665500944e-01,-2.586868030741903413e-01,-5.529269370950896878e+00,6.987118303366588457e+00,1.466012900035085886e+00,-1.116097087812883260e+01,-4.409821032970573818e+00,-1.100043020126301840e+00,-1.173566492458378541e+01,-4.622525462141246599e+00,-8.942549956252676679e-01,-1.264492229954567197e-03,1.522927893439263852e-02,-3.858140136711454143e-02,6.895927341402417754e-02,5.725712017686129460e-03,0.000000000000000000e+00,1.042373245015530952e-04,-1.255412451420116152e-03,0.000000000000000000e+00,-1.379138560938628411e+00,-4.754659801270607611e-01,-1.822589198767363694e-01,4.168397768719986352e-01,3.974292489942256590e-01,4.501286727324123604e-01,5.483686297967188539e-01,0.000000000000000000e+00,0.000000000000000000e+00,0.000000000000000000e+00,0.000000000000000000e+00
4.400000000000545697e-01,0.000000000000000000e+00,-2.413982597347663628e+01,-1.771786342886075616e+01,9.099693905131729821e+01,6.029694759433512630e-01,-1.551628622929373258e-01,-3.796856468902867765e-01,0.000000000000000000e+00,0.000000000000000000e+00,0.000000000000000000e+00,0.000000000000000000e+00,-2.673205519359295401e+00,-1.681139085503883246e-01,-2.924463717648691508e-01,-4.712712237395780157e+00,6.735601650679395647e+00,1.348888942985018158e+00,-9.643202423010176716e+00,-3.713998021663996507e+00,-9.825235276471073753e-01,-1.027046797316527460e+01,-3.906250063697773722e+00,-7.900073932905326002e-01,-9.094907474082597346e-04,1.446195443757264734e-02,-3.609317047124403766e-02,7.482491904734091259e-02,4.705627572185246653e-03,0.000000000000000000e+00,8.566655582925206645e-05,-1.362197285411511152e-03,0.000000000000000000e+00,-1.206985271796773063e+00,-4.161151399198079748e-01,-1.595081438337060398e-01,3.899565229027757152e-01,3.717978384899681688e-01,4.210985175041828676e-01,5.130026835470478108e-01,0.000000000000000000e+00,0.000000000000000000e+00,0.000000000000000000e+00,0.000000000000000000e+00
4.499999999998181011e-01,0.000000000000000000e+00,-2.563289965238569224e+01,-1.787976914898104752e+01,9.086435004094423107e+01,6.003744225322422690e-01,-1.518539745185556455e-01,-3.752764774300189066e-01,0.000000000000000000e+00,0.000000000000000000e+00,0.000000000000000000e+00,0.000000000000000000e+00,-2.697177749223207410e+00,-1.079160523092454332e-01,-2.880838139043386259e-01,-4.210085895432873038e+00,6.400420632174122382e+00,1.015724313898934028e+00,-8.298917850422062870e+00,-3.182585999063399562e+00,-8.853224478577018663e-01,-8.978839508895994470e+00,-3.348977417285674996e+00,-7.052222594358408259e-01,-5.461698525785292548e-04,1.365058433985286666e-02,-3.376541308778569644e-02,8.070053989631120750e-02,3.228887561208319996e-03,0.000000000000000000e+00,5.878231379033184705e-05,-1.469163719488247952e-03,0.000000000000000000e+00,-1.056321306354335521e+00,-3.641728681076389362e-01,-1.395972716533243618e-01,3.648070510341887007e-01,3.478194749270224762e-01,3.939406045116220501e-01,4.799175937982277929e-01,0.000000000000000000e+00,0.000000000000000000e+00,0.000000000000000000e+00,0.000000000000000000e+00
4.600000000000363798e-01,0.000000000000000000e+00,-2.713708737446070174e+01,-1.805224618236505307e+01,9.075799138656515197e+01,5.977793691210153693e-01,-1.485450867440234746e-01,-3.708673079695505304e-01,0.000000000000000000e+00,0.000000000000000000e+00,0.000000000000000000e+00,0.000000000000000000e+00,-2.702939936933415943e+00,-3.671508105694527846e-02,-2.328531323211309734e-01,-3.217671443870616876e+00,5.643226604295607629e+00,7.574436311753506290e-01,-7.111555751660343816e+00,-2.835069960315921289e+00,-8.067096995213054456e-01,-7.843036579291105426e+00,-2.968935793119065192e+00,-6.382247152471433038e-01,-1.738333902515828402e-04,1.279749899379979856e-02,-3.158777979610164627e-02,8.644825527093120965e-02,1.174260166174726210e-03,0.000000000000000000e+00,2.137755751821193733e-05,-1.573801617935846695e-03,0.000000000000000000e+00,-9.244642236579069250e-01,-3.187143776871512735e-01,-1.221718075621797683e-01,3.412795444312693993e-01,3.253875483242591460e-01,3.685341872082004699e-01,4.489662612378086948e-01,0.000000000000000000e+00,0.000000000000000000e+00,0.000000000000000000e+00,0.000000000000000000e+00
4.699999999997999112e-01,0.000000000000000000e+00,-2.862748756475865619e+01,-1.804218426572370504e+01,9.054704924601949756e+01,5.951843157099063752e-01,-1.452361989696417943e-01,-3.664581385092826604e-01,0.000000000000000000e+00,0.000000000000000000e+00,0.000000000000000000e+00,0.000000000000000000e+00,-2.708702124643362463e+00,3.448589019211700801e-02,-1.776224507404348951e-01,-1.839184072878180087e+00,5.097032174870860466e+00,7.488665909915144248e-01,-6.067001651725016487e+00,-2.552030592477309678e+00,-7.405590675791469124e-01,-6.853074145606719902e+00,-2.650641034813593588e+00,-5.829401879177253942e-01,1.527485810038416310e-04,1.199767219568373400e-02,-2.955058864089380594e-02,9.260491795135361581e-02,-1.179001191259028847e-03,0.000000000000000000e+00,-2.146386849030691420e-05,-1.685884454739981254e-03,0.000000000000000000e+00,-8.090664229551508546e-01,-2.789303197471716955e-01,-1.069215063176691405e-01,3.192693976638608655e-01,3.044023242996575229e-01,3.447663063562214081e-01,4.200110734315000705e-01,0.000000000000000000e+00,0.000000000000000000e+00,0.000000000000000000e+00,0.000000000000000000e+00
4.800000000000181899e-01,0.000000000000000000e+00,-3.012607185877770277e+01,-1.802836323677177433e+01,9.034839059799404026e+01,5.925892622986793645e-01,-1.419273111951096233e-01,-3.620489690488143397e-01,0.000000000000000000e+00,0.000000000000000000e+00,0.000000000000000000e+00,0.000000000000000000e+00,-2.724174198097518484e+00,1.408991622967403490e-01,-1.605811110154164445e-01,-1.018932006638443521e+00,4.988463486032681971e+00,7.249252351469501754e-01,-5.135723298971655026e+00,-2.260760859046289095e+00,-6.984878480892787733e-01,-5.983744430406902737e+00,-2.307475656442462775e+00,-5.510342851931606667e-01,5.838364281121414525e-04,1.128801695799228587e-02,-2.764478208535215212e-02,9.955444224560822120e-02,-5.149133827462851025e-03,0.000000000000000000e+00,-9.374064431065693163e-05,-1.812401439309593854e-03,0.000000000000000000e+00,-7.080733467038645701e-01,-2.441123737148427342e-01,-9.357484956110601049e-02,2.986787516213791349e-01,2.847705006421893947e-01,3.225312877997957850e-01,3.929232929857960355e-01,0.000000000000000000e+00,0.000000000000000000e+00,0.000000000000000000e+00,0.000000000000000000e+00
4.899999999997817213e-01,0.000000000000000000e+00,-3.163580809616768263e+01,-1.802595178130399489e+01,9.017236608341031001e+01,5.899942088875703705e-01,-1.386184234207279431e-01,-3.576397995885464143e-01,0.000000000000000000e+00,0.000000000000000000e+00,0.000000000000000000e+00,0.000000000000000000e+00,-2.742107212761091706e+00,2.562368856780121718e-01,-1.532187446225336258e-01,-8.202156378153714344e-01,5.396518259930846995e+00,3.409602170773626262e-01,-4.306310846383199831e+00,-2.005813194600721605e+00,-6.697964027062310866e-01,-5.221166038964029532e+00,-1.991449939294170246e+00,-5.318525646491142345e-01,9.932794713309372938e-04,1.062953444589811308e-02,-2.586188674052378872e-02,1.071181750144501593e-01,-1.000968431776863739e-02,0.000000000000000000e+00,-1.822275918115430515e-04,-1.950100168242073669e-03,0.000000000000000000e+00,-6.196869009606690293e-01,-2.136406363234716055e-01,-8.189421166933757990e-02,2.794160584223238097e-01,2.664047924817189994e-01,3.017302726279519343e-01,3.675824851698370477e-01,0.000000000000000000e+00,0.000000000000000000e+00,0.000000000000000000e+00,0.000000000000000000e+00
5.000000000000000000e-01,0.000000000000000000e+00,-3.315769744972898536e+01,-1.803494943031316566e+01,9.001916266917990583e+01,5.873991554763433598e-01,-1.353095356461957721e-01,-3.532306301280780936e-01,0.000000000000000000e+00,0.000000000000000000e+00,0.000000000000000000e+00,0.000000000000000000e+00,-2.701209323755422442e+00,2.630813697004941165e-01,-1.504474529834899932e-01,-5.304050939972776435e-01,5.348852832923756573e+00,-1.382502693562752960e-01,-3.602735923299148713e+00,-1.748844319547487647e+00,-6.074574033304024345e-01,-4.565227365383797142e+00,-1.713825009960489032e+00,-4.784099792858998446e-01,9.540407855885261633e-04,9.795691227427247641e-03,-2.419397569185646746e-02,1.127950235822752778e-01,-1.098554970859094010e-02,0.000000000000000000e+00,-1.999933468999533508e-04,-2.053447927347445273e-03,0.000000000000000000e+00,-5.423334418811869284e-01,-1.869725847736600777e-01,-7.167162903705984189e-02,2.613956743840865071e-01,2.492235442125467493e-01,2.822707776389433709e-01,3.438759824516636199e-01,0.000000000000000000e+00,0.000000000000000000e+00,0.000000000000000000e+00,0.000000000000000000e+00
5.100000000002182787e-01,0.000000000000000000e+00,-3.469268864518607387e+01,-1.805535793440970949e+01,8.988891775326051459e+01,5.848041020651164601e-01,-1.320006478716636289e-01,-3.488214606676096619e-01,0.000000000000000000e+00,0.000000000000000000e+00,0.000000000000000000e+00,0.000000000000000000e+00,-2.630541579879450254e+00,2.150256603077909667e-01,-1.499993557984528603e-01,-1.765340420068151339e-01,4.448048653628452698e+00,-1.318324083674158598e-01,-2.997306119821832482e+00,-1.501040572851198407e+00,-5.318014597930644793e-01,-3.997283501996185873e+00,-1.470686213493978434e+00,-4.110766931990953998e-01,7.294813137659082519e-04,8.924195023326622969e-03,-2.263363325541686844e-02,1.174166906133152222e-01,-9.597872021259107669e-03,0.000000000000000000e+00,-1.747304959302973463e-04,-2.137585970714729090e-03,0.000000000000000000e+00,-4.746357583591441776e-01,-1.636334175864029850e-01,-6.272509746557858312e-02,2.445374792433632483e-01,2.331503664451737012e-01,2.640662841515380999e-01,3.216983835681413439e-01,0.000000000000000000e+00,0.000000000000000000e+00,0.000000000000000000e+00,0.000000000000000000e+00
5.199999999999818101e-01,0.000000000000000000e+00,-3.608780298461553571e+01,-1.797716472744202676e+01,8.957628627697525303e+01,5.822090486540074661e-01,-1.286917600972819209e-01,-3.444122912073418474e-01,0.000000000000000000e+00,0.000000000000000000e+00,0.000000000000000000e+00,0.000000000000000000e+00,-2.680266708351824789e+00,2.334732303506213413e-01,-1.964385835922232149e-01,3.783748005244102486e-01,4.198348635250953365e+00,-2.976658749663122286e-02,-2.395573592893446069e+00,-1.204698885917713458e+00,-4.903868986917905293e-01,-3.484134590672144594e+00,-1.151128487059444039e+00,-3.774480362768204422e-01,7.409825975444546192e-04,8.506461253326188035e-03,-2.117392200708644381e-02,1.278838322688010398e-01,-1.113973148133986547e-02,0.000000000000000000e+00,-2.028002459246705167e-04,-2.328141632259771165e-03,0.000000000000000000e+00,-4.153885519796384207e-01,-1.432076011754330191e-01,-5.489533173624276674e-02,2.287665199341905597e-01,2.181137963721413164e-01,2.470358533351078856e-01,3.009510849013768419e-01,0.000000000000000000e+00,0.000000000000000000e+00,0.000000000000000000e+00,0.000000000000000000e+00
5.300000000002000888e-01,0.000000000000000000e+00,-3.747919925813607733e+01,-1.790105079254210096e+01,8.926229049721004571e+01,5.796139952427804554e-01,-1.253828723227497777e-01,-3.400031217468734712e-01,0.000000000000000000e+00,0.000000000000000000e+00,0.000000000000000000e+00,0.000000000000000000e+00,-2.739795647019693803e+00,2.573362831890115832e-01,-2.466959313947675869e-01,1.293776725481241341e+00,4.815402147163371005e+00,-3.654510268089575797e-01,-1.841533177713250424e+00,-9.273453896247623174e-01,-4.572767696135269788e-01,-3.030448738978230416e+00,-8.459967988163688002e-01,-3.516216749427973909e-01,7.640450644902021127e-04,8.134598494529446736e-03,-1.980835193814410242e-02,1.397361479251656158e-01,-1.312476752539112369e-02,0.000000000000000000e+00,-2.389380826918552705e-04,-2.543914564840227960e-03,0.000000000000000000e+00,-3.635369777284640502e-01,-1.253314716328823852e-01,-4.804292967557120819e-02,2.140126773398101090e-01,2.040469800379021426e-01,2.311037663482397031e-01,2.815418420780814723e-01,0.000000000000000000e+00,0.000000000000000000e+00,0.000000000000000000e+00,0.000000000000000000e+00
5.399999999999636202e-01,0.000000000000000000e+00,-3.888319697002999931e+01,-1.783829004615405722e+01,8.896795074378172785e+01,5.770189418316714614e-01,-1.220739845483680697e-01,-3.355939522866056013e-01,0.000000000000000000e+00,0.000000000000000000e+00,0.000000000000000000e+00,0.000000000000000000e+00,-2.667569509992532506e+00,3.066851503069885077e-01,-2.519794835311183201e-01,1.590367685459492142e+00,5.013768209799618347e+00,-7.213188698984145386e-01,-1.397319400009677137e+00,-8.089870974489224986e-01,-4.337675420779431579e-01,-2.634702969684485474e+00,-6.798690212322686666e-01,-3.349264630092989581e-01,8.518394188464701623e-04,7.409360573376355327e-03,-1.853085160009836432e-02,1.454317754095824089e-01,-1.672000138471549380e-02,0.000000000000000000e+00,-3.043897780086608751e-04,-2.647604196540052912e-03,0.000000000000000000e+00,-3.181578633934619704e-01,-1.096867600094867945e-01,-4.204589022071658633e-02,2.002103545367101833e-01,1.908873751000645380e-01,2.161991876858931627e-01,2.633843598427138555e-01,0.000000000000000000e+00,0.000000000000000000e+00,0.000000000000000000e+00,0.000000000000000000e+00
5.500000000001818989e-01,0.000000000000000000e+00,-4.030054135374908242e+01,-1.778886826693995360e+01,8.869351282033834138e+01,5.744238884204444506e-01,-1.187650967738359264e-01,-3.311847828261372251e-01,0.000000000000000000e+00,0.000000000000000000e+00,0.000000000000000000e+00,0.000000000000000000e+00,-2.558871845377400867e+00,3.630888240346324403e-01,-2.448137010175997219e-01,1.068005932439821892e+00,4.396404299032948160e+00,-7.193229192617976997e-01,-1.019963451111494779e+00,-7.523399451830539153e-01,-4.144118326198663604e-01,-2.288728235083378415e+00,-5.663498400518757192e-01,-3.219453127430874084e-01,9.434630611899482528e-04,6.649064649266817929e-03,-1.733574111047631733e-02,1.491231477847605180e-01,-2.115969522401998926e-02,0.000000000000000000e+00,-3.852149759902643439e-04,-2.714806105916382165e-03,0.000000000000000000e+00,-2.784432732856689796e-01,-9.599492581256979795e-02,-3.679744129657992746e-02,1.872981851447490242e-01,1.785764727604608748e-01,2.022558502383147716e-01,2.463979083809399451e-01,0.000000000000000000e+00,0.000000000000000000e+00,0.000000000000000000e+00,0.000000000000000000e+00
5.599999999999454303e-01,0.000000000000000000e+00,-4.173192344501475759e+01,-1.775277432652820409e+01,8.843918269091795992e+01,5.718288350093354566e-01,-1.154562089994542184e-01,-3.267756133658693551e-01,0.000000000000000000e+00,0.000000000000000000e+00,0.000000000000000000e+00,0.000000000000000000e+00,-2.590037691590349578e+00,4.843004487626400567e-01,-2.776711979770563610e-01,7.488305145976118515e-01,3.894612348155368053e+00,-6.138355303636549021e-01,-5.844992543320355338e-01,-6.568567034183583342e-01,-4.279438378047333291e-01,-1.957453487418307381e+00,-3.673723017612040009e-01,-3.414407625784416922e-01,1.177264168062235050e-03,6.296006076455989801e-03,-1.621770689955037356e-02,1.613450240969866722e-01,-3.016923955566452875e-02,0.000000000000000000e+00,-5.492348905804288542e-04,-2.937306937819936931e-03,0.000000000000000000e+00,-2.436861236466014435e-01,-8.401219783466813695e-02,-3.220413883181590109e-02,1.752187604866579096e-01,1.670595376297195622e-01,1.892117606614522607e-01,2.305069643875499175e-01,0.000000000000000000e+00,0.000000000000000000e+00,0.000000000000000000e+00,0.000000000000000000e+00
5.700000000001637090e-01,0.000000000000000000e+00,-4.308932510780707759e+01,-1.761667537813897511e+01,8.803518382823847332e+01,5.692337815981085569e-01,-1.121473212249220752e-01,-3.223664439054009789e-01,0.000000000000000000e+00,0.000000000000000000e+00,0.000000000000000000e+00,0.000000000000000000e+00,-2.664383490950440248e+00,6.255201819106234185e-01,-3.228850509467777741e-01,7.860075309732164062e-01,4.351533108607508638e+00,-6.249602806616789685e-01,-1.358306326728497826e-01,-5.674320284686382720e-01,-4.566880302430593730e-01,-1.645338171292726193e+00,-1.482370183420442245e-01,-3.757637991421479695e-01,1.422484082122311023e-03,6.059026094042175431e-03,-1.517177808572485465e-02,1.774186178047084117e-01,-4.165275999512521587e-02,0.000000000000000000e+00,-7.582938587525692165e-04,-3.229928780840083096e-03,0.000000000000000000e+00,-2.132675936365063252e-01,-7.352523401905917966e-02,-2.818420306836019046e-02,1.639183743438505092e-01,1.562853643687550365e-01,1.770089237489192724e-01,2.156408752829873099e-01,0.000000000000000000e+00,0.000000000000000000e+00,0.000000000000000000e+00,0.000000000000000000e+00
5.799999999999272404e-01,0.000000000000000000e+00,-4.444828688084500357e+01,-1.747939819412318130e+01,8.762505594504101225e+01,5.666387281869995629e-01,-1.088384334505403672e-01,-3.179572744451331090e-01,0.000000000000000000e+00,0.000000000000000000e+00,0.000000000000000000e+00,0.000000000000000000e+00,-2.674922950938142474e+00,5.253068794693367405e-01,-3.047639376949211609e-01,1.039683181517763844e+00,5.107439273289845261e+00,-8.067916441721803000e-01,1.642583504761736535e-01,-4.626731538380348119e-01,-3.973364068710446007e-01,-1.453356999692263063e+00,-8.296392704238356175e-02,-3.216312234178290153e-01,1.117548067191522854e-03,5.690683085527077807e-03,-1.419330437454523891e-02,1.903998929976499777e-01,-3.739112321228277996e-02,0.000000000000000000e+00,-6.807102124097646426e-04,-3.466254567144201604e-03,0.000000000000000000e+00,-1.866461077671638935e-01,-6.434732308986954030e-02,-2.466606254391721237e-02,1.533467841736996795e-01,1.462060500251818607e-01,1.655930845800429874e-01,2.017335450855665679e-01,0.000000000000000000e+00,0.000000000000000000e+00,0.000000000000000000e+00,0.000000000000000000e+00
5.900000000001455192e-01,0.000000000000000000e+00,-4.582233028269939012e+01,-1.735756141374745809e+01,8.723376643950564358e+01,5.640436747757725522e-01,-1.055295456760082240e-01,-3.135481049846647883e-01,0.000000000000000000e+00,0.000000000000000000e+00,0.000000000000000000e+00,0.000000000000000000e+00,-2.684733158744322612e+00,4.223342028022604167e-01,-2.859189596543630918e-01,1.970560509586296583e+00,5.381016189401641725e+00,-9.790129318243787626e-01,4.461623101450595819e-01,-3.613875323188818212e-01,-3.393340703357205501e-01,-1.287504934985955751e+00,-3.196292353521527907e-02,-2.685113424121374215e-01,8.405361804626783470e-04,5.343198206158586254e-03,-1.327793538306686581e-02,2.042723170747315908e-01,-3.213398914724071437e-02,0.000000000000000000e+00,-5.850034098683029897e-04,-3.718803833624821642e-03,0.000000000000000000e+00,-1.633476936210363772e-01,-5.631506032008993384e-02,-2.158707982428095112e-02,1.434569877266319848e-01,1.367767810524397609e-01,1.549134872975616861e-01,1.887231405427383102e-01,0.000000000000000000e+00,0.000000000000000000e+00,0.000000000000000000e+00,0.000000000000000000e+00
5.999999999999090505e-01,0.000000000000000000e+00,-4.721205552006136230e+01,-1.725113359867018303e+01,8.686160606797319872e+01,5.614486213646635582e-01,-1.022206579016265160e-01,-3.091389355243968629e-01,0.000000000000000000e+00,0.000000000000000000e+00,0.000000000000000000e+00,0.000000000000000000e+00,-2.572137669680857108e+00,5.611404269133917211e-01,-3.035412022638340757e-01,2.855588838716336841e+00,5.315502650113797856e+00,-7.849273269122267749e-01,7.002549348303206411e-01,-4.283969131168750000e-01,-3.622543024890031438e-01,-1.074803692289299395e+00,5.379555837525175355e-02,-2.959991458174973666e-01,1.044765326029786952e-03,4.788962124577741258e-03,-1.242160129765752796e-02,2.091970536948884463e-01,-4.563866289238657781e-02,0.000000000000000000e+00,-8.308577342059861055e-04,-3.808459297883995398e-03,0.000000000000000000e+00,-1.429575431843330968e-01,-4.928543825243697496e-02,-1.889243629826099780e-02,1.342050140698592964e-01,1.279556340646976209e-01,1.449226494424757372e-01,1.765518162148353998e-01,0.000000000000000000e+00,0.000000000000000000e+00,0.000000000000000000e+00,0.000000000000000000e+00
6.100000000001273293e-01,0.000000000000000000e+00,-4.861799770759445494e+01,-1.716008763953388438e+01,8.650882650594999745e+01,5.614085253359628602e-01,-1.019044263319627969e-01,-3.088628266570151992e-01,0.000000000000000000e+00,0.000000000000000000e+00,0.000000000000000000e+00,0.000000000000000000e+00,-2.439846998831393776e+00,7.388490838694287133e-01,-3.270310520043228086e-01,2.700567809252063078e+00,5.046551368909351964e+00,-4.675295761264010030e-01,9.327881377989503120e-01,-5.562807554335431615e-01,-3.940091396844634386e-01,-8.662100931003227089e-01,1.330982229028628006e-01,-3.320269778239057779e-01,1.286915305805024987e-03,4.249685781803666518e-03,-1.162049477923638059e-02,2.121177013735625616e-01,-6.423475300189351866e-02,0.000000000000000000e+00,-1.169401949007088442e-03,-3.861630064925066202e-03,0.000000000000000000e+00,-1.251126275508583907e-01,-4.313330057587149574e-02,-1.653415617995654396e-02,1.255497280886199163e-01,1.197033894416742322e-01,1.355761508427245354e-01,1.651654572889969530e-01,0.000000000000000000e+00,0.000000000000000000e+00,0.000000000000000000e+00,0.000000000000000000e+00
6.199999999998908606e-01,0.000000000000000000e+00,-4.988405325339692808e+01,-1.699822259037318162e+01,8.601065213802159803e+01,5.613530012701867244e-01,-1.018671966541946361e-01,-3.089108546380542886e-01,0.000000000000000000e+00,0.000000000000000000e+00,0.000000000000000000e+00,0.000000000000000000e+00,-2.494684757107537010e+00,7.630521882056287009e-01,-2.998401920267674270e-01,2.378600703324321497e+00,5.387949770059265120e+00,-3.156009926155588508e-01,1.220599337266220941e+00,-6.135653703422899730e-01,-3.926506399068206421e-01,-7.441495483442094327e-01,1.537844462538136558e-01,-3.346658945389087703e-01,1.243356026330119006e-03,4.064966164159235402e-03,-1.087105403549906008e-02,2.318371120526489804e-01,-7.091229268749713044e-02,0.000000000000000000e+00,-1.290967418756569203e-03,-4.220624475329590002e-03,0.000000000000000000e+00,-1.094952335078687583e-01,-3.774911382626244816e-02,-1.447025234158703239e-02,1.174526475957242272e-01,1.119833569546462432e-01,1.268324361170690695e-01,1.545134389797979679e-01,0.000000000000000000e+00,0.000000000000000000e+00,0.000000000000000000e+00,0.000000000000000000e+00
6.300000000001091394e-01,0.000000000000000000e+00,-5.113585230461948328e+01,-1.683609329104560359e+01,8.549785318371614551e+01,5.613610790957611618e-01,-1.018779935026182248e-01,-3.088410808507020544e-01,0.000000000000000000e+00,0.000000000000000000e+00,0.000000000000000000e+00,0.000000000000000000e+00,-2.617789785901397437e+00,7.312541539931132206e-01,-2.541602455076231726e-01,3.071837900270236954e+00,6.426349650787768653e+00,-1.098541808754633503e-01,1.539704836086530637e+00,-6.497573604230733046e-01,-3.807232460633954707e-01,-6.628219427163161148e-01,1.426202715946709165e-01,-3.264781117464340965e-01,1.114696512157232512e-03,3.990460947087622230e-03,-1.016994698486553030e-02,2.600488988256345890e-01,-7.264213441878819566e-02,0.000000000000000000e+00,-1.322459410202164775e-03,-4.734223685967624794e-03,0.000000000000000000e+00,-9.582730692846411213e-02,-3.303701723826018427e-02,-1.266397876917570858e-02,1.098777722362570680e-01,1.047612126383605513e-01,1.186526299160945569e-01,1.445484014468576550e-01,0.000000000000000000e+00,0.000000000000000000e+00,0.000000000000000000e+00,0.000000000000000000e+00
6.399999999998726707e-01,0.000000000000000000e+00,-5.240384400631559458e+01,-1.669033002632822615e+01,8.500227629399596196e+01,5.613853113076008317e-01,-1.018859243859350228e-01,-3.087856690619047995e-01,0.000000000000000000e+00,0.000000000000000000e+00,0.000000000000000000e+00,0.000000000000000000e+00,-2.623842470577929298e+00,8.342655984282498771e-01,-2.437902692394232906e-01,4.283030219055796728e+00,6.757973447230216202e+00,2.652384446130392481e-01,1.810779433133474114e+00,-8.030116102516878795e-01,-4.059514164948943016e-01,-5.473319980641836446e-01,1.678818320251968255e-01,-3.552047144373984833e-01,1.189706039037900093e-03,3.741735531959796898e-03,-9.514056441742963291e-03,2.786191565482000754e-01,-8.858854141501125434e-02,0.000000000000000000e+00,-1.612765802763430761e-03,-5.072297618838390171e-03,0.000000000000000000e+00,-8.386550225953129378e-02,-2.891311602768729255e-02,-1.108317633170893129e-02,1.027914234267316429e-01,9.800484618356888888e-02,1.110003640788779500e-01,1.352260392286897539e-01,0.000000000000000000e+00,0.000000000000000000e+00,0.000000000000000000e+00,0.000000000000000000e+00
6.500000000000909495e-01,0.000000000000000000e+00,-5.368839771813158990e+01,-1.656089425136007520e+01,8.452422104136229564e+01,5.614434064604439945e-01,-1.019295966097665956e-01,-3.087327864438438318e-01,0.000000000000000000e+00,0.000000000000000000e+00,0.000000000000000000e+00,0.000000000000000000e+00,-2.583671806646619995e+00,9.905125895325090912e-01,-2.473640125651039301e-01,5.172552906978901355e+00,7.153364578156439890e+00,4.733643192713680725e-01,2.054593944528653182e+00,-1.027963207079153785e+00,-4.453707675890534734e-01,-4.251181481266951834e-01,2.064309144511727312e-01,-3.978968733469476216e-01,1.321424531547386915e-03,3.446828786276771861e-03,-8.900466257235631340e-03,2.932672233714501142e-01,-1.124310278493489551e-01,0.000000000000000000e+00,-2.046821338162899042e-03,-5.338967561381639110e-03,0.000000000000000000e+00,-7.339684996567774622e-02,-2.530398771782487247e-02,-9.699700215759946703e-03,9.616209461705012285e-02,9.168421817167798915e-02,1.038416159368430042e-01,1.265049042565988269e-01,0.000000000000000000e+00,0.000000000000000000e+00,0.000000000000000000e+00,0.000000000000000000e+00
6.599999999998544808e-01,0.000000000000000000e+00,-5.498982198709047964e+01,-1.644775227928506922e+01,8.406395268415970179e+01,5.615237250155549198e-01,-1.018036788708824442e-01,-3.088131861356497865e-01,0.000000000000000000e+00,0.000000000000000000e+00,0.000000000000000000e+00,0.000000000000000000e+00,-2.436174142532923526e+00,1.019826222462729692e+00,-2.951202894684930023e-01,6.271385208880182027e+00,8.331023537286318614e+00,3.316011673729460929e-01,2.194767154737288006e+00,-1.060862909110516172e+00,-4.257487347475322759e-01,-3.024635521671790173e-01,3.004682164333117855e-01,-3.813365750773900498e-01,1.272786541280251016e-03,3.040449041742677213e-03,-8.326448353682139314e-03,2.955884607280488408e-01,-1.237386351184396327e-01,0.000000000000000000e+00,-2.252677784418583712e-03,-5.381225986331678555e-03,0.000000000000000000e+00,-6.423496479175942742e-02,-2.214537491603080915e-02,-8.488918831548224186e-03,8.996031120952172055e-02,8.577122651676753751e-02,9.714455704588718932e-02,1.183462215728042360e-01,0.000000000000000000e+00,0.000000000000000000e+00,0.000000000000000000e+00,0.000000000000000000e+00
6.700000000000727596e-01,0.000000000000000000e+00,-5.608477191862855449e+01,-1.622860935057516585e+01,8.338601844586895595e+01,5.615407989021928836e-01,-1.018312628555818888e-01,-3.087381492939924033e-01,0.000000000000000000e+00,0.000000000000000000e+00,0.000000000000000000e+00,0.000000000000000000e+00,-2.283465992822462542e+00,1.042977525016175022e+00,-3.450215294694966572e-01,7.452496827324581297e+00,8.736813010272056701e+00,1.576448057436361239e-01,2.312678720798611920e+00,-1.108002980088869105e+00,-4.033178673251011093e-01,-1.871516981607080077e-01,3.820105039192748797e-01,-3.617699817333436263e-01,1.217731062000287825e-03,2.666066527596666364e-03,-7.789450595374647866e-03,2.961601765007291220e-01,-1.352717355397461407e-01,0.000000000000000000e+00,-2.462639362543945359e-03,-5.391634145585140481e-03,0.000000000000000000e+00,-5.621672733541098477e-02,-1.938104126671311156e-02,-7.429275268892244349e-03,8.415849951212571456e-02,8.023958152116514309e-02,9.087941167422992905e-02,1.107137169334578980e-01,0.000000000000000000e+00,0.000000000000000000e+00,0.000000000000000000e+00,0.000000000000000000e+00
6.799999999998362910e-01,0.000000000000000000e+00,-5.714382314376181426e+01,-1.599811189589156513e+01,8.266721380686497866e+01,5.615221124767908467e-01,-1.018314387288877104e-01,-3.087045832318517369e-01,0.000000000000000000e+00,0.000000000000000000e+00,0.000000000000000000e+00,0.000000000000000000e+00,-2.279919710934155130e+00,1.042482783557597381e+00,-3.335911835911621881e-01,8.385014056749149347e+00,8.204276261586976204e+00,1.033689500691776231e-01,2.529238923866983679e+00,-1.208123386637663943e+00,-3.950389724932370505e-01,-1.373888219681607681e-01,3.876559345024302994e-01,-3.561706353088533450e-01,1.138655531271975333e-03,2.490250420109452710e-03,-7.287085441531683180e-03,3.160855416363780868e-01,-1.445286576132937817e-01,0.000000000000000000e+00,-2.631162820776815695e-03,-5.754377983389246526e-03,0.000000000000000000e+00,-4.919937984786403734e-02,-1.696177021189766015e-02,-6.501903495160112414e-03,7.873086414337360228e-02,7.506468898906391851e-02,8.501832441680605423e-02,1.035734555300631687e-01,0.000000000000000000e+00,0.000000000000000000e+00,0.000000000000000000e+00,0.000000000000000000e+00
6.900000000000545697e-01,0.000000000000000000e+00,-5.822063306102203484e+01,-1.578561294266036263e+01,8.196390417185284605e+01,5.615342798730409424e-01,-1.018530265633050408e-01,-3.086545597264780949e-01,0.000000000000000000e+00,0.000000000000000000e+00,0.000000000000000000e+00,0.000000000000000000e+00,-2.317275103302452344e+00,1.035504060611208255e+00,-3.053431041726440420e-01,1.010603944024093792e+01,8.047058055158540668e+00,-1.089949366196046598e-01,2.785473695473036138e+00,-1.328144928520927692e+00,-3.912832527904950286e-01,-1.107253194111045697e-01,3.707428751065637296e-01,-3.549216518579398905e-01,1.058089268332018619e-03,2.367816807140346331e-03,-6.817119331075101318e-03,3.434121358466843965e-01,-1.534581114799971058e-01,0.000000000000000000e+00,-2.793724678140599698e-03,-6.251862149449883416e-03,0.000000000000000000e+00,-4.305798455630988064e-02,-1.484448873319029437e-02,-5.690292461956219378e-03,7.365327334370133650e-02,7.022354087849526361e-02,7.953523634760620298e-02,9.689369111223573861e-02,0.000000000000000000e+00,0.000000000000000000e+00,0.000000000000000000e+00,0.000000000000000000e+00
6.999999999998181011e-01,0.000000000000000000e+00,-5.931531128423381460e+01,-1.559105261095067085e+01,8.127635503321687338e+01,5.615219434060459980e-01,-1.018241292033330719e-01,-3.087156410958131203e-01,0.000000000000000000e+00,0.000000000000000000e+00,0.000000000000000000e+00,0.000000000000000000e+00,-2.195586041070184624e+00,1.250654844748192440e+00,-2.861303781607416608e-01,1.258158984013160797e+01,8.789312966800121529e+00,-3.752491328184633379e-01,2.896084903061296956e+00,-1.853684741538311087e+00,-4.320009781374007374e-01,-3.166117443359051098e-02,3.312058053414790315e-01,-3.979844464780631363e-01,1.195514939765818067e-03,2.098785228125176882e-03,-6.377462752014838830e-03,3.478095235531815099e-01,-1.981200725202834356e-01,0.000000000000000000e+00,-3.606801429372913717e-03,-6.331917158836564835e-03,0.000000000000000000e+00,-3.768319925544572763e-02,-1.299150047412179348e-02,-4.979992140255290814e-03,6.890315168347566077e-02,6.569461300548566640e-02,7.440576915932621549e-02,9.064472484099252159e-02,0.000000000000000000e+00,0.000000000000000000e+00,0.000000000000000000e+00,0.000000000000000000e+00
7.100000000000363798e-01,0.000000000000000000e+00,-6.028556615418018794e+01,-1.536375110958835499e+01,8.051343481497323751e+01,5.614564338556988776e-01,-1.018126237395581141e-01,-3.087821890885392162e-01,0.000000000000000000e+00,0.000000000000000000e+00,0.000000000000000000e+00,0.000000000000000000e+00,-2.031772125816494690e+00,1.524639323285410963e+00,-2.693107750965534342e-01,1.465377284770685939e+01,9.593919083510552781e+00,-2.988396371152077791e-01,2.938647417515581228e+00,-2.547721005354458335e+00,-4.740769169549036710e-01,5.062987384140960057e-02,2.878911987641685766e-01,-4.422542139810441975e-01,1.363426369392846220e-03,1.816935750395174158e-03,-5.966160951288847908e-03,3.440479479073492164e-01,-2.581731601738547766e-01,0.000000000000000000e+00,-4.700075622299442618e-03,-6.263437189878881886e-03,0.000000000000000000e+00,-3.297933056454514095e-02,-1.136981458928516819e-02,-4.358356250195013007e-03,6.445937969058455896e-02,6.145776934558080246e-02,6.960711677519980378e-02,8.479877324501750024e-02,0.000000000000000000e+00,0.000000000000000000e+00,0.000000000000000000e+00,0.000000000000000000e+00
7.199999999997999112e-01,0.000000000000000000e+00,-6.090531463165466164e+01,-1.502114337029624735e+01,7.952786202415209971e+01,5.614132452274415153e-01,-1.018620502993285715e-01,-3.087436406924373156e-01,0.000000000000000000e+00,0.000000000000000000e+00,0.000000000000000000e+00,0.000000000000000000e+00,-1.937739991007556117e+00,1.612573341556917672e+00,-2.516739404433689375e-01,1.622386574257382108e+01,9.789829708274734088e+00,2.556858352184329664e-02,3.021164590246743220e+00,-2.944516335509392846e+00,-4.727786589122109362e-01,8.169787955119237055e-02,2.585612961940563781e-01,-4.430082979975790702e-01,1.349059432581143107e-03,1.621089934572860760e-03,-5.581385243753587098e-03,3.507457696565051686e-01,-2.918881173102330640e-01,0.000000000000000000e+00,-5.313860757969048748e-03,-6.385371897206771480e-03,0.000000000000000000e+00,-2.886263018998751900e-02,-9.950558371007649922e-03,-3.814317105054744646e-03,6.030219995134705746e-02,5.749417250725287476e-02,6.511794395111090983e-02,7.932984469282614026e-02,0.000000000000000000e+00,0.000000000000000000e+00,0.000000000000000000e+00,0.000000000000000000e+00
7.300000000000181899e-01,0.000000000000000000e+00,-6.154376091744222776e+01,-1.469329100994822213e+01,7.855543360788983875e+01,5.614043481944847036e-01,-1.018564259070587064e-01,-3.087599541602709108e-01,0.000000000000000000e+00,0.000000000000000000e+00,0.000000000000000000e+00,0.000000000000000000e+00,-1.849800578787356153e+00,1.684263093269974698e+00,-2.339657524169195812e-01,1.743849380143795713e+01,1.010864162581257020e+01,5.153747914048949497e-01,3.097455226695051689e+00,-3.342620685949274417e+00,-4.670750564998318866e-01,1.027621041228336668e-01,2.307789005528577686e-01,-4.392246759172814263e-01,1.318161350555777534e-03,1.447716594240157448e-03,-5.221424881683897450e-03,3.579108102043069284e-01,-3.258815978448049711e-01,0.000000000000000000e+00,-5.932716447964329030e-03,-6.515812382921215735e-03,0.000000000000000000e+00,-2.525980385968055672e-02,-8.708463195885356167e-03,-3.338188560713049521e-03,5.641312926725845084e-02,5.378619997914786677e-02,6.091829141716163798e-02,7.421362383161227150e-02,0.000000000000000000e+00,0.000000000000000000e+00,0.000000000000000000e+00,0.000000000000000000e+00
7.399999999997817213e-01,0.000000000000000000e+00,-6.220081547472427275e+01,-1.438011623705301822e+01,7.759623860198944101e+01,5.614270907166055702e-01,-1.018552090227442392e-01,-3.088068708637989879e-01,0.000000000000000000e+00,0.000000000000000000e+00,0.000000000000000000e+00,0.000000000000000000e+00,-1.628439968231054191e+00,1.762685050187518643e+00,-2.572367947204808325e-01,1.824396623325885969e+01,1.106783889252320918e+01,1.130208870749942918e+00,2.986790085324200650e+00,-3.757624821176390295e+00,-4.299000536985174148e-01,1.772283543241933434e-01,2.320878186236909058e-01,-4.038458281277523820e-01,1.290566528192100019e-03,1.192277721959252414e-03,-4.884679448633190771e-03,3.368019702683509031e-01,-3.645671989435526616e-01,0.000000000000000000e+00,-6.636992796968938305e-03,-6.131523233998079428e-03,0.000000000000000000e+00,-2.210670638225047807e-02,-7.621414638906333187e-03,-2.921493562270436641e-03,5.277487647701187279e-02,5.031736577880028399e-02,5.698948713694636237e-02,6.942736347898220695e-02,0.000000000000000000e+00,0.000000000000000000e+00,0.000000000000000000e+00,0.000000000000000000e+00
7.500000000000000000e-01,0.000000000000000000e+00,-6.287636809666462057e+01,-1.408154740166279950e+01,7.665033507640427501e+01,5.614453114401741773e-01,-1.018249401890406747e-01,-3.087888748702024011e-01,0.000000000000000000e+00,0.000000000000000000e+00,0.000000000000000000e+00,0.000000000000000000e+00,-1.392681811996751007e+00,1.841833482609750883e+00,-2.849299254746254784e-01,1.946196059110505772e+01,1.237795502347055709e+01,1.518390206060248993e+00,1.739107983483583197e+00,-1.467397340168223652e+00,-3.849734943830536715e-01,2.580066702414690050e-01,2.257905525809281999e-01,-3.605995843720136151e-01,1.261545951683087138e-03,9.539038781169924004e-04,-4.569651743836739693e-03,1.390017517320214224e-01,-1.838309930352147181e-01,0.000000000000000000e+00,3.446831119410276312e-02,2.606282844975401844e-02,0.000000000000000000e+00,-1.934719959766206115e-02,-6.670058745334155915e-03,-2.556813217454821305e-03,4.937126557842542313e-02,4.707224715445855467e-02,5.331406328998285205e-02,6.494978348691689274e-02,0.000000000000000000e+00,0.000000000000000000e+00,0.000000000000000000e+00,0.000000000000000000e+00
7.600000000002182787e-01,0.000000000000000000e+00,-6.357028594014695955e+01,-1.379751858392278940e+01,7.571775174742575132e+01,5.613447330043757066e-01,-1.018703096546133419e-01,-3.088751976931714549e-01,0.000000000000000000e+00,0.000000000000000000e+00,0.000000000000000000e+00,0.000000000000000000e+00,-1.103798639490754852e+00,1.919438906649162613e+00,-3.146316437727781357e-01,2.145357784635030285e+01,1.376792984078032589e+01,1.664185471432019670e+00,9.492532803873955372e-01,-6.840669498799372139e-01,-3.213158426358225239e-01,3.421025980267401456e-01,1.976107981932662683e-01,-2.985138795679625479e-01,1.229911999592283710e-03,7.072771043352910287e-04,-4.274941125521170698e-03,5.308856316344182091e-02,-9.231779238378494401e-02,0.000000000000000000e+00,1.730958607195967613e-02,9.954105593145343156e-03,0.000000000000000000e+00,-1.693215288607229432e-02,-5.837457450365532950e-03,-2.237654709692813576e-03,4.618716380846805969e-02,4.403641601413067069e-02,4.987567860819670795e-02,6.076097612830197447e-02,0.000000000000000000e+00,0.000000000000000000e+00,0.000000000000000000e+00,0.000000000000000000e+00
7.699999999999818101e-01,0.000000000000000000e+00,-6.367049358466704234e+01,-1.336969158790636669e+01,7.450218043449483218e+01,5.612694022626559809e-01,-1.019023246877671096e-01,-3.088884795596111843e-01,0.000000000000000000e+00,0.000000000000000000e+00,0.000000000000000000e+00,0.000000000000000000e+00,-7.989212843758946025e-01,1.996579781973457202e+00,-3.449380812441935062e-01,2.326030938978377449e+01,1.435972828719672201e+01,1.815213560716702812e+00,9.496412123026891638e-01,-8.683479800599704923e-01,-2.475365126019875572e-01,4.281925146478681721e-01,1.516591797431139088e-01,-2.262051168795716216e-01,1.196832705764404054e-03,4.789065436329687994e-04,-3.999237283523973500e-03,4.107410168342237600e-02,-1.026480613142085191e-01,0.000000000000000000e+00,1.924651149641409820e-02,7.701394065641695499e-03,0.000000000000000000e+00,-1.481856843984650021e-02,-5.108787011608379239e-03,-1.958335699153943357e-03,4.320841436162140697e-02,4.119637477697743466e-02,4.665904572116005844e-02,5.684231758536587714e-02,0.000000000000000000e+00,0.000000000000000000e+00,0.000000000000000000e+00,0.000000000000000000e+00
7.800000000002000888e-01,0.000000000000000000e+00,-6.358155459670966536e+01,-1.289036143152566005e+01,7.320115053461950083e+01,5.611794653483137552e-01,-1.019396944737985117e-01,-3.089057234745410385e-01,0.000000000000000000e+00,0.000000000000000000e+00,0.000000000000000000e+00,0.000000000000000000e+00,-5.390763065935568754e-01,2.134520450265321223e+00,-3.216370961357361002e-01,2.460067521004382485e+01,1.392717113725698042e+01,1.964584563084069035e+00,8.898413749291005370e-01,-1.121500664670580738e+00,-1.847404620708562040e-01,4.421385723568521664e-01,8.185042193430804025e-02,-1.647847923720625329e-01,1.196999955293174666e-03,3.023041146370322187e-04,-3.741314413535545141e-03,2.962560936493476016e-02,-1.173052279752724580e-01,0.000000000000000000e+00,2.199473024536358762e-02,5.554801755925267530e-03,0.000000000000000000e+00,-1.296881572496553017e-02,-4.471074085232801948e-03,-1.713883153628847304e-03,4.042177344743729667e-02,3.853949636184274274e-02,4.364986318705485480e-02,5.317638514649533632e-02,0.000000000000000000e+00,0.000000000000000000e+00,0.000000000000000000e+00,0.000000000000000000e+00
7.899999999999636202e-01,0.000000000000000000e+00,-6.351848445973913471e+01,-1.241329032830403811e+01,7.191889627331541135e+01,5.610847430784453582e-01,-1.019841483403092358e-01,-3.089189656506833859e-01,0.000000000000000000e+00,0.000000000000000000e+00,0.000000000000000000e+00,0.000000000000000000e+00,-3.064240955737116967e-01,2.309175027209207975e+00,-2.659653097458727355e-01,2.618563468502262026e+01,1.385001424697401440e+01,2.068179777474699499e+00,4.079259717414549513e-01,2.065001967106101094e-02,-1.223796027843050555e-01,3.976573775281960765e-01,1.891428490991991715e-02,-1.037109343900997488e-01,1.211428260682906972e-03,1.607547304808797637e-04,-3.500025767061976361e-03,0.000000000000000000e+00,0.000000000000000000e+00,0.000000000000000000e+00,0.000000000000000000e+00,0.000000000000000000e+00,0.000000000000000000e+00,-1.134996150207444668e-02,-3.912964746860102955e-03,-1.499944808013152497e-03,3.781485140744316603e-02,3.605396804610450784e-02,4.083475190716429060e-02,4.974687974327795387e-02,0.000000000000000000e+00,0.000000000000000000e+00,0.000000000000000000e+00,0.000000000000000000e+00
8.000000000001818989e-01,0.000000000000000000e+00,-6.348115518578676841e+01,-1.193843265919218766e+01,7.065517179867453024e+01,5.609900208085726314e-01,-1.020286022068219861e-01,-3.089322078268263438e-01,0.000000000000000000e+00,0.000000000000000000e+00,0.000000000000000000e+00,0.000000000000000000e+00,-3.393045887869053368e-02,2.452552073233971619e+00,-2.175183970021015156e-01,2.796178751231384041e+01,1.443758314453406477e+01,2.276833446140720696e+00,3.549880039352768524e-01,-3.125712407605875376e-02,-3.572258563630575229e-02,3.447852030382266286e-01,-3.143692719287955600e-02,-1.825791595228767883e-02,1.203666352775761665e-03,1.665242998598920980e-05,-3.274298552877127465e-03,0.000000000000000000e+00,0.000000000000000000e+00,0.000000000000000000e+00,0.000000000000000000e+00,0.000000000000000000e+00,0.000000000000000000e+00,-9.933183478780175171e-03,-3.424522344807599296e-03,-1.312711676010107527e-03,3.537605762959578765e-02,3.372873894523751442e-02,3.820119564118536898e-02,4.653855348336442127e-02,0.000000000000000000e+00,0.000000000000000000e+00,0.000000000000000000e+00,0.000000000000000000e+00
8.099999999999454303e-01,0.000000000000000000e+00,-6.325619682345541150e+01,-1.140074202776937895e+01,6.930676329500143140e+01,5.608952985387042345e-01,-1.020730560733327102e-01,-3.089454500029686912e-01,0.000000000000000000e+00,0.000000000000000000e+00,0.000000000000000000e+00,0.000000000000000000e+00,2.456326501305350352e-01,2.590379226505038712e+00,-1.703534676100269263e-01,2.922866042180848467e+01,1.504913265055670379e+01,2.757598593900035588e+00,2.912397248262904026e-01,-6.498217819571409926e-02,6.359933615309186494e-02,2.811585404516556141e-01,-6.376447734044143889e-02,7.993765663376065089e-02,1.189318751813032158e-03,-1.127771230824479960e-04,-3.063129167295461711e-03,0.000000000000000000e+00,0.000000000000000000e+00,0.000000000000000000e+00,0.000000000000000000e+00,0.000000000000000000e+00,0.000000000000000000e+00,-8.693257153786635577e-03,-2.997050586642009511e-03,-1.148850234440196294e-03,3.309454901536791616e-02,3.155347087957765390e-02,3.573748535888830041e-02,4.353714185695494593e-02,0.000000000000000000e+00,0.000000000000000000e+00,0.000000000000000000e+00,0.000000000000000000e+00
8.200000000001637090e-01,0.000000000000000000e+00,-6.230966416622913329e+01,-1.061997689771819964e+01,6.762456337853727462e+01,5.608005762688313967e-01,-1.021175099398454605e-01,-3.089586921791117047e-01,0.000000000000000000e+00,0.000000000000000000e+00,0.000000000000000000e+00,0.000000000000000000e+00,5.079170844917378913e-01,2.792776188730829112e+00,-1.307256901029798246e-01,2.992442084173586636e+01,1.560730665445491105e+01,3.365396884809668698e+00,2.392560152562828724e-01,-8.050788971372069280e-02,1.712230981564343002e-01,2.290881126754107100e-01,-7.815232861804832787e-02,1.865077110897850887e-01,1.199549254992914428e-03,-2.181598234612274520e-04,-2.865578732058993421e-03,0.000000000000000000e+00,0.000000000000000000e+00,0.000000000000000000e+00,0.000000000000000000e+00,0.000000000000000000e+00,0.000000000000000000e+00,-7.608106716573292787e-03,-2.622938709251102299e-03,-1.005443072758295010e-03,3.096018177034793456e-02,2.951849240983664066e-02,3.343266718070517923e-02,4.072930031549377300e-02,0.000000000000000000e+00,0.000000000000000000e+00,0.000000000000000000e+00,0.000000000000000000e+00
8.299999999999272404e-01,0.000000000000000000e+00,-6.141565066225773961e+01,-9.820906185337820560e+00,6.598755057873364649e+01,5.607058539989629997e-01,-1.021619638063561847e-01,-3.089719343552540520e-01,0.000000000000000000e+00,0.000000000000000000e+00,0.000000000000000000e+00,0.000000000000000000e+00,7.672853890831623502e-01,3.006070626884111086e+00,-9.236996113960431465e-02,3.031379650238892154e+01,1.613302690781723925e+01,3.930213992334517403e+00,1.770821884164280879e-01,-8.130551464021382180e-02,2.929940339094924129e-01,1.668435676295670633e-01,-7.797657811272434847e-02,3.072928960721467151e-01,1.207892172387494160e-03,-3.083087959318841793e-04,-2.680768919999240024e-03,0.000000000000000000e+00,0.000000000000000000e+00,0.000000000000000000e+00,0.000000000000000000e+00,0.000000000000000000e+00,0.000000000000000000e+00,-6.658412006776383979e-03,-2.295525975821510918e-03,-8.799369510946166914e-04,2.896346630400905078e-02,2.761475583700497005e-02,3.127649367578701906e-02,3.810254494059489572e-02,0.000000000000000000e+00,0.000000000000000000e+00,0.000000000000000000e+00,0.000000000000000000e+00
8.400000000001455192e-01,0.000000000000000000e+00,-6.057403736117696269e+01,-9.003512491166160814e+00,6.439518377583780762e+01,5.606111317290902729e-01,-1.022064176728689350e-01,-3.089851765313970100e-01,0.000000000000000000e+00,0.000000000000000000e+00,0.000000000000000000e+00,0.000000000000000000e+00,1.071593150585322451e+00,3.202295169518793116e+00,-4.730868519459600907e-02,3.055423053440966541e+01,1.677444301745445898e+01,4.498109612986456618e+00,8.263181932186466905e-02,-6.408813866155889383e-02,4.466790095244406733e-01,7.242828398472954399e-02,-5.973877672071842976e-02,4.600556949556080522e-01,1.203752997690939403e-03,-4.028152931061622236e-04,-2.507878049914949621e-03,0.000000000000000000e+00,0.000000000000000000e+00,0.000000000000000000e+00,0.000000000000000000e+00,0.000000000000000000e+00,0.000000000000000000e+00,-5.827264535525903538e-03,-2.008983087209013224e-03,-7.700973420380076949e-04,2.709552503812836036e-02,2.583379697546078768e-02,2.925937830099597375e-02,3.564519693940765288e-02,0.000000000000000000e+00,0.000000000000000000e+00,0.000000000000000000e+00,0.000000000000000000e+00
8.499999999999090505e-01,0.000000000000000000e+00,-5.978459109915055336e+01,-8.167759441626465389e+00,6.284668789298999059e+01,5.605164094592218760e-01,-1.022508715393796591e-01,-3.089984187075393574e-01,0.000000000000000000e+00,0.000000000000000000e+00,0.000000000000000000e+00,0.000000000000000000e+00,1.393638521977172973e+00,3.391782221999624980e+00,3.992710762211332254e-04,3.104765014685816382e+01,1.739731870127628000e+01,4.903677346192907294e+00,-3.420737067426816297e-02,-2.385816133240969972e-02,6.232690328792376278e-01,-4.431767682467574465e-02,-1.856649078594274638e-02,6.357830155366653857e-01,1.192754367384133395e-03,-4.900870176337711239e-04,-2.346137433302902548e-03,0.000000000000000000e+00,0.000000000000000000e+00,0.000000000000000000e+00,0.000000000000000000e+00,0.000000000000000000e+00,0.000000000000000000e+00,-5.099866444497468988e-03,-1.758208396333859431e-03,-6.739686468175548617e-04,2.534805293626817349e-02,2.416769752043224778e-02,2.737235277826428198e-02,3.334633071964350493e-02,0.000000000000000000e+00,0.000000000000000000e+00,0.000000000000000000e+00,0.000000000000000000e+00
8.600000000001273293e-01,0.000000000000000000e+00,-5.880791981485576514e+01,-7.233115793243004354e+00,6.122668892050841549e+01,5.604216871893490381e-01,-1.022953254058924094e-01,-3.090116608836823153e-01,0.000000000000000000e+00,0.000000000000000000e+00,0.000000000000000000e+00,0.000000000000000000e+00,1.759205874149295301e+00,3.561663287211072948e+00,3.353494459170445335e-02,3.162430984286989499e+01,1.709182060802345049e+01,5.091982675426321769e+00,-1.239459939847663839e-01,2.141218116050146170e-02,8.326651466856641592e-01,-1.338779832484153498e-01,2.766112118443112000e-02,8.443720648722523592e-01,1.171717591415571968e-03,-5.787443403378015206e-04,-2.194827956699021976e-03,0.000000000000000000e+00,0.000000000000000000e+00,0.000000000000000000e+00,0.000000000000000000e+00,0.000000000000000000e+00,0.000000000000000000e+00,-4.463267042906605281e-03,-1.538737077788682271e-03,-5.898393775662037677e-04,2.371328057883008433e-02,2.260904984249567651e-02,2.560702722081584573e-02,3.119572531340091340e-02,0.000000000000000000e+00,0.000000000000000000e+00,0.000000000000000000e+00,0.000000000000000000e+00
8.699999999998908606e-01,0.000000000000000000e+00,-5.684654146635138972e+01,-5.901110174037216716e+00,5.917622894521317534e+01,5.603269649194806412e-01,-1.023397792724031335e-01,-3.090249030598246627e-01,0.000000000000000000e+00,0.000000000000000000e+00,0.000000000000000000e+00,0.000000000000000000e+00,2.126972414533440325e+00,3.730553651723460540e+00,6.593427311078305098e-02,3.191959526117524959e+01,1.601892919995180975e+01,5.268377900662078339e+00,-2.211708831291676891e-01,8.364154667722895065e-02,1.059578677320623719e+00,-2.309029191235064393e-01,9.070957989449475456e-02,1.070530581057370645e+00,1.148128282477298492e-03,-6.546044939058003010e-04,-2.053276884434615535e-03,0.000000000000000000e+00,0.000000000000000000e+00,0.000000000000000000e+00,0.000000000000000000e+00,0.000000000000000000e+00,0.000000000000000000e+00,-3.906132231715573905e-03,-1.346661635502767896e-03,-5.162116857668410264e-04,2.218393961951014778e-02,2.115092405258270358e-02,2.395555283096799729e-02,2.918381893381420678e-02,0.000000000000000000e+00,0.000000000000000000e+00,0.000000000000000000e+00,0.000000000000000000e+00
8.800000000001091394e-01,0.000000000000000000e+00,-5.499435241672757968e+01,-4.519235147396178043e+00,5.723441483923879503e+01,5.602322426496079144e-01,-1.023842331389158838e-01,-3.090381452359676762e-01,0.000000000000000000e+00,0.000000000000000000e+00,0.000000000000000000e+00,0.000000000000000000e+00,2.474023269365799749e+00,3.897557726463651395e+00,1.314760678711445752e-01,3.189645359751339271e+01,1.512402242315701884e+01,5.441918645338287064e+00,-4.315297063360804541e-01,2.237014192740090224e-01,1.291639736685762374e+00,-4.410416661543194450e-01,2.313925029980797576e-01,1.301885319130883012e+00,1.122164991524968181e-03,-7.123081929614976217e-04,-1.920854867592541263e-03,0.000000000000000000e+00,0.000000000000000000e+00,0.000000000000000000e+00,0.000000000000000000e+00,0.000000000000000000e+00,0.000000000000000000e+00,-3.418542709851158431e-03,-1.178562333170761131e-03,-4.517746943613211007e-04,2.075323046957139317e-02,1.978683719106437075e-02,2.241058700366450537e-02,2.730166646248117016e-02,0.000000000000000000e+00,0.000000000000000000e+00,0.000000000000000000e+00,0.000000000000000000e+00
8.899999999998726707e-01,0.000000000000000000e+00,-5.324950498603093507e+01,-3.087015610925855302e+00,5.539942085797767390e+01,5.601375203797395175e-01,-1.024286870054266080e-01,-3.090513874121100235e-01,0.000000000000000000e+00,0.000000000000000000e+00,0.000000000000000000e+00,0.000000000000000000e+00,2.816334310158334908e+00,4.064130212160852906e+00,2.046009631614657820e-01,3.172906303651604532e+01,1.420978927449415430e+01,5.593956040119432593e+00,-6.847349761934978796e-01,4.131276020963968731e-01,1.536521456371736427e+00,-6.940137822939663748e-01,4.213181885649558422e-01,1.546106270314864251e+00,1.094658889236324638e-03,-7.585695405258474503e-04,-1.796973145864801244e-03,0.000000000000000000e+00,0.000000000000000000e+00,0.000000000000000000e+00,0.000000000000000000e+00,0.000000000000000000e+00,0.000000000000000000e+00,-2.991817369670509395e-03,-1.031446308820056865e-03,-3.953811587238103414e-04,1.941479206625503981e-02,1.851072440392411561e-02,2.096526068058693695e-02,2.554089967865459318e-02,0.000000000000000000e+00,0.000000000000000000e+00,0.000000000000000000e+00,0.000000000000000000e+00
9.000000000000909495e-01,0.000000000000000000e+00,-5.160953754494191514e+01,-1.603807134985227867e+00,5.366872202769376798e+01,5.600427981098667907e-01,-1.024731408719393583e-01,-3.090646295882529815e-01,0.000000000000000000e+00,0.000000000000000000e+00,0.000000000000000000e+00,0.000000000000000000e+00,3.139870162134619225e+00,4.222580316972890380e+00,2.628513820863286332e-01,3.158643507054235400e+01,1.300454072855878174e+01,5.793201963344984939e+00,-9.056878875409684060e-01,6.011105570638568540e-01,1.782554414155732792e+00,-9.147067017177181736e-01,6.096531461761891535e-01,1.791521074549757175e+00,1.063986573493668408e-03,-7.911701955309594818e-04,-1.681080929870757161e-03,0.000000000000000000e+00,0.000000000000000000e+00,0.000000000000000000e+00,0.000000000000000000e+00,0.000000000000000000e+00,0.000000000000000000e+00,-2.618358737384879169e-03,-9.026942895046455176e-04,-3.460270409673634525e-04,1.816267359091802355e-02,1.731691197786624017e-02,1.961314780969780971e-02,2.389369005337317262e-02,0.000000000000000000e+00,0.000000000000000000e+00,0.000000000000000000e+00,0.000000000000000000e+00
