t_s,phi_deg,roll_deg,pitch_deg,yaw_deg,pos_x,pos_y,pos_z,u0,u1,u2,u3,wx,wy,wz,wx_dot,wy_dot,wz_dot,pred_wx_dot,pred_wy_dot,pred_wz_dot,pred_nogyro_wx_dot,pred_nogyro_wy_dot,pred_nogyro_wz_dot,tau_gyro_x,tau_gyro_y,tau_gyro_z,flap_damp_x,flap_damp_y,flap_damp_z,flap_prec_x,flap_prec_y,flap_prec_z,tau_cmd_x,tau_cmd_y,tau_cmd_z,spd0,spd1,spd2,spd3,sem_lift,sem_roll,sem_pitch,sem_yaw
0.000000000000000000e+00,8.500000000000000000e+01,3.449770109988202216e-01,2.373281511453403103e-01,9.235128428523873367e+01,nan,nan,nan,9.955552220344543457e-01,9.999997615814208984e-01,8.782463073730468750e-01,9.757212996482849121e-01,2.747534393994987504e-05,2.359068219211037098e-03,-1.951922893791704309e-03,4.461569183084099222e-01,-3.574621317203536056e-03,7.228772492001364069e-01,-3.225638689278169835e+01,1.593782525320893262e+00,2.516601300297690003e+01,-3.225651397412234189e+01,1.589148958605540063e+00,2.516612213005493714e+01,5.307131833845194186e-06,4.837972539259600686e-04,-3.517879663713916388e-05,-3.346606632131242130e-07,-1.641445601543997436e-07,2.352918582181238601e-05,-1.080357879928171216e-07,-2.086949164721097153e-10,-1.772941948113506751e-09,-1.234718869790601747e+00,1.658689266136405271e-01,2.686960490101775179e+00,9.955552220344543457e-01,9.999997615814208984e-01,8.782463073730468750e-01,9.757212996482849121e-01,9.623806476593017578e-01,4.651522636413574219e-02,-5.095976591110229492e-02,7.079368829727172852e-02
1.000000000021827873e-02,8.500000000000000000e+01,3.459404417237046947e-01,2.376780154532805722e-01,9.234934669903346105e+01,nan,nan,nan,9.935029361891722921e-01,9.999997615814208984e-01,8.760474953451908853e-01,9.738690657541156925e-01,1.702341940068395208e-04,1.678911929095342273e-03,-2.946596677200926523e-03,1.623944755507827353e-01,-1.346235129375547290e-01,7.802841891361826931e-01,-3.220987656477430505e+01,1.596271424488243218e+00,2.518511400128620537e+01,-3.221004645139279887e+01,1.589468415461743778e+00,2.518526062256371034e+01,8.754363454115336431e-06,7.101454896553855995e-04,-5.121895354170655538e-05,-2.073740830340205945e-06,-7.370501192745438200e-08,3.557535619023035023e-05,-1.776814853732935348e-07,-1.294479946684277788e-09,-1.100278926117614725e-08,-1.232940180988271184e+00,1.659023009072614352e-01,2.689003901496953119e+00,9.954228639327151740e-01,9.999997615814208984e-01,8.781044993560216394e-01,9.756018435000233247e-01,9.608548147174749143e-01,4.566237250833810046e-02,-5.215919790058670680e-02,7.179306833564330637e-02
2.000000000043655746e-02,8.500000000000000000e+01,3.472249877281811670e-01,2.384681948377887772e-01,9.234735778911674231e+01,nan,nan,nan,9.914506503438903495e-01,9.999997615814208984e-01,8.738486833173347845e-01,9.720168318599464730e-01,8.218823964303830030e-04,-6.781741384762045993e-04,-4.015072768926914934e-03,-3.953446320182782414e-01,-2.347314830407327246e+00,4.841037087033687181e-01,-3.212004708946246723e+01,1.601089334744062675e+00,2.522199073983722428e+01,-3.212012121291689937e+01,1.590085288085549164e+00,2.522229555672825896e+01,1.311677629062247657e-05,1.148390145293583589e-03,-8.105930435523861402e-05,-1.001397967353131288e-05,1.738771459355554200e-07,4.856761203699286816e-05,-2.654897978131247710e-07,-6.263048478796910931e-09,-5.328769017686032146e-08,-1.229497993157236735e+00,1.659668792280895588e-01,2.692958026872357635e+00,9.951666839022734745e-01,9.999997615814208984e-01,8.778300289485359009e-01,9.753706352906580390e-01,9.593289817756480709e-01,4.480951865254056976e-02,-5.335862989007111867e-02,7.279244837401488422e-02
2.999999999974534148e-02,8.500000000000000000e+01,3.485095066962854427e-01,2.392584189956790952e-01,9.234536895122525380e+01,nan,nan,nan,9.893983644987950354e-01,9.999997615814208984e-01,8.716498712896787460e-01,9.701645979659456742e-01,-6.945517688300728923e-03,-1.459854847665792085e-02,-5.826773549564596456e-03,-7.516969044319281590e-01,-3.528246062590766563e+00,4.684702417587552903e-01,-3.198673188299706638e+01,1.605926203703001987e+00,2.527538792628005737e+01,-3.198956840108284183e+01,1.591012076778341777e+00,2.527599256245968107e+01,2.441681278862593867e-05,1.555110514945310307e-03,-1.358882998315056765e-04,8.465087474930780350e-05,1.512472383688196064e-06,7.087955988374430318e-05,-4.910950219518302867e-07,5.309152136600329986e-08,4.523687064239381749e-07,-1.224500479329134528e+00,1.660606158378701291e-01,2.698697938695417520e+00,9.947946675926424565e-01,9.999997615814208984e-01,8.774314519481363206e-01,9.750348822475494170e-01,9.578031488339601163e-01,4.395666479682053263e-02,-5.455806187944639563e-02,7.379182841229581236e-02
3.999999999996362021e-02,8.500000000000000000e+01,3.497939986296376702e-01,2.400486879272531182e-01,9.234338018536104187e+01,nan,nan,nan,9.873460786535129818e-01,9.999997615814208984e-01,8.694510592618227562e-01,9.683123640717764546e-01,-1.706680395465158540e-02,-3.175190872359017619e-02,-7.846272915802549736e-03,-6.899804256331908414e-01,-2.214641495440713648e+00,9.984625736367883642e-01,-3.181463829548116706e+01,1.610797494898430493e+00,2.534417064388431484e+01,-3.182104135371593401e+01,1.592232355848610892e+00,2.534510478267781508e+01,3.776691208493814514e-05,1.934466030290572271e-03,-1.966692635896499547e-04,2.080878563113234463e-04,3.156906374552383900e-06,9.581415949668226084e-05,-7.577079198855700827e-07,1.309798313020283856e-07,1.118084085218605557e-06,-1.218049187398646316e+00,1.661815837773007176e-01,2.706106094711405063e+00,9.943142856346978142e-01,9.999997615814208984e-01,8.769167723631643430e-01,9.746013267822140058e-01,9.562773158921332728e-01,4.310381094102289090e-02,-5.575749386893080750e-02,7.479120845066739021e-02
5.000000000018189894e-02,8.500000000000000000e+01,3.504408646374138625e-01,2.397939910615148607e-01,9.234424436646303036e+01,nan,nan,nan,9.852937928082309282e-01,9.999997615814208984e-01,8.672522472339667665e-01,9.664601301776071240e-01,1.905447397418862793e-02,-7.828003883046019684e-02,1.871853337283992461e-02,-4.006105215657126406e-01,-1.161132721595386386e+00,1.048762905743746865e+00,-3.162375182268307228e+01,1.615948919380790327e+00,2.542723470782496520e+01,-3.161690712745511789e+01,1.593781012385000917e+00,2.543033814602911491e+01,-3.020200799400033864e-05,2.307203907978805282e-03,-1.056447813867178014e-04,-2.324313715219725673e-04,6.739254301204749181e-06,-2.244489546433155462e-04,6.312832177424779484e-07,-1.469398899456935568e-07,-1.257108634785014869e-06,-1.210239414689720627e+00,1.663279691798556503e-01,2.715071962431863994e+00,9.937325268558182545e-01,9.999997615814208984e-01,8.762934779993447609e-01,9.740762764677325380e-01,9.547514829503064293e-01,4.225095708522519367e-02,-5.695692585841516387e-02,7.579058848903902357e-02
6.000000000040017767e-02,8.500000000000000000e+01,3.351902486587993168e-01,2.135216080218739487e-01,9.241619575235702655e+01,nan,nan,nan,9.832415069629489857e-01,9.999997615814208984e-01,8.650534352061107768e-01,9.646078962834379045e-01,6.667143742122856598e-02,-1.321105995519900600e-01,5.238926456602684134e-02,2.419849053498747751e-02,-8.848053010566135912e-01,5.149272178156900637e-01,-3.140370582815824818e+01,1.623066155485093587e+00,2.552675572794762715e+01,-3.137938490626271459e+01,1.597468616372728301e+00,2.553245857381976691e+01,-1.197008862830662064e-04,2.661470195719231168e-03,2.648084398233885414e-05,-8.137184755341764393e-04,1.081413395384096667e-05,-6.309332091451965753e-04,2.460084840919869334e-06,-5.170170475142161148e-07,-4.434512043115403390e-06,-1.201160565515293044e+00,1.664980656844965157e-01,2.725491654167829125e+00,9.930559293528338216e-01,9.999997615814208984e-01,8.755685737512354239e-01,9.734656320827804743e-01,9.532256500084796969e-01,4.139810322942760745e-02,-5.815635784789952023e-02,7.678996852741060142e-02
6.999999999970896170e-02,8.500000000000000000e+01,3.199069624836801684e-01,1.872686596607459619e-01,9.248820750904586419e+01,nan,nan,nan,9.811892211178535605e-01,9.999997615814208984e-01,8.628546231784547382e-01,9.627556623894371057e-01,7.694863692274178657e-02,-7.320480034709213324e-02,8.820003173535329033e-02,2.206211035962750977e-01,-6.695227536242494004e-01,1.967168599560068232e-01,-3.114254077904886486e+01,1.630053804851004706e+00,2.563111444351976687e+01,-3.111126931378530713e+01,1.601471573169180873e+00,2.564078650193529185e+01,-2.626319194166880605e-04,2.979511078423837094e-03,3.944901802809366084e-05,-9.397301231186584464e-04,4.386813296692736609e-06,-1.066959527453157893e-03,5.349000974080322745e-06,-6.004741770641363166e-07,-5.165031317294432558e-06,-1.190896491898765674e+00,1.666902689756872558e-01,2.737267573703995538e+00,9.922906095610098953e-01,9.999997615814208984e-01,8.747486127466378436e-01,9.727749138470368484e-01,9.516998170667915202e-01,4.054524937370751481e-02,-5.935578983727485269e-02,7.778934856569130751e-02
7.999999999992724042e-02,8.500000000000000000e+01,3.045909954996756097e-01,1.610351403681826166e-01,9.256027958615538864e+01,nan,nan,nan,9.791369352725716180e-01,9.999997615814208984e-01,8.606558111505986375e-01,9.609034284952678862e-01,5.681063040759420923e-02,7.753070668046885272e-02,1.257539710205134720e-01,-3.237861246937293741e-02,-5.695792144053341000e-01,3.085844676414704058e-01,-3.084489833004959181e+01,1.634922534599172694e+00,2.574193171604391495e+01,-3.081522837340398624e+01,1.603744832561229128e+00,2.575671008705796083e+01,-4.505746941455934080e-04,3.265258158306972181e-03,-4.677588038371686789e-05,-6.942710510813500813e-04,-1.060966271406533450e-05,-1.527243496267019626e-03,9.135449977760102112e-06,-4.464091307370949056e-07,-3.851808837431619074e-06,-1.179525817731139847e+00,1.669030714729025089e-01,2.750308075415116349e+00,9.914422894482364246e-01,9.999997615814208984e-01,8.738397254823579985e-01,9.720092859645483863e-01,9.501739841249647878e-01,3.969239551790998410e-02,-6.055522182675926457e-02,7.878872860406299639e-02
9.000000000014551915e-02,8.500000000000000000e+01,2.892423370712818298e-01,1.348210445659459300e-01,9.263241193244334681e+01,nan,nan,nan,9.770846494272895644e-01,9.999997615814208984e-01,8.584569991227426478e-01,9.590511946010986666e-01,-8.180095904546366703e-03,-1.125194678331974951e-01,1.054221137161671651e-01,-2.600777366445507499e-01,-4.703885102677995422e-01,5.674952869202289918e-01,-3.049516681656781358e+01,1.633735727237965785e+00,2.587749590663853283e+01,-3.048983917401514177e+01,1.600713599293227096e+00,2.589204302132377222e+01,-3.103092677940131878e-04,3.439044550101787515e-03,-2.772668799645378393e-04,1.000420697510373048e-04,7.606468244896291659e-06,-1.276473992173842841e-03,6.335032966062995384e-06,6.476354156027595098e-08,5.606825206650055648e-07,-1.167122246726063794e+00,1.671350571864605727e-01,2.764527136373413185e+00,9.905163219554549148e-01,9.999997615814208984e-01,8.728476470809928278e-01,9.711735795842837415e-01,9.486481511831379443e-01,3.883954166211234238e-02,-6.175465381624367645e-02,7.978810864243457424e-02
1.000000000003637979e-01,8.500000000000000000e+01,2.744905224850139325e-01,1.098179985330102332e-01,9.270436115518150189e+01,nan,nan,nan,9.750458369935037783e-01,9.999997615814208984e-01,8.570101199776449796e-01,9.572209244667778671e-01,-1.105111018631241004e-01,-5.862766885604629996e-01,3.689982689066927113e-02,-2.143285702183320984e-01,-2.745778366018003513e-01,7.681052565012771449e-01,-3.008680336310013104e+01,1.632293921519776481e+00,2.597816699913244065e+01,-3.012497805137597240e+01,1.600858201880448695e+00,2.598782678714400518e+01,1.107608385759279118e-04,3.226733367527563363e-03,-6.065523151088915649e-04,1.352614622001925690e-03,5.351785872478883699e-05,-4.324725820141606504e-04,-2.119988901129975409e-06,8.816909601817862844e-07,7.659454552592372904e-06,-1.153179430438068032e+00,1.673703809346178129e-01,2.778975514120396895e+00,9.895185837372356685e-01,9.999997615814208984e-01,8.718262372084545353e-01,9.702737307889417462e-01,9.473191607548369086e-01,3.762843995060788371e-02,-6.258236453852500381e-02,8.040727706525091500e-02
1.099999999996725819e-01,8.500000000000000000e+01,2.865986046113168095e-01,1.356624824988119926e-01,9.276598036845213358e+01,nan,nan,nan,9.730578633750934792e-01,9.999997615814208984e-01,8.584004863864669321e-01,9.554735295218902413e-01,-1.150857776286413336e-01,-4.667988374882293678e-01,1.007320736327831368e-01,-1.686715270833778410e-02,-6.405120222304709621e-02,8.055427429167540954e-01,-2.963216964071801129e+01,1.624737780052601943e+00,2.608460616518013353e+01,-2.966498332357216938e+01,1.597686813320583044e+00,2.610133438019858687e+01,-1.569507301857962604e-04,2.781791830903971099e-03,-5.820184247222754802e-04,1.409696827633182686e-03,4.075429279202025311e-05,-1.212088147116601724e-03,3.300141097665283677e-06,9.240689764145025408e-07,8.052585429893153223e-06,-1.135632448903036718e+00,1.675540720401177963e-01,2.790363018598281286e+00,9.884569822525297589e-01,9.999997615814208984e-01,8.709603700597303710e-01,9.693192211870906849e-01,9.467329102162179710e-01,3.506557246454794496e-02,-6.200747067087536424e-02,7.959180452407860207e-02
1.199999999998908606e-01,8.500000000000000000e+01,2.987347167706070894e-01,1.614939723476174205e-01,9.282764546604184375e+01,nan,nan,nan,9.710698897565024357e-01,9.999997615814208984e-01,8.597908527954153390e-01,9.537261345768436316e-01,-9.199615822350289129e-02,-1.921953184154470973e-01,1.958975264540792072e-01,1.985574934401728997e-01,2.060829113676928559e-01,5.124449777702668740e-01,-2.910527286707031891e+01,1.617666324330601979e+00,2.617699861282474316e+01,-2.911937647512565164e+01,1.594766459606788755e+00,2.620355942438922980e+01,-6.001283547231469175e-04,2.376703455214022702e-03,-4.642669740919659052e-04,1.127722312399982241e-03,1.274903801737982861e-05,-2.378091660829625108e-03,1.226570777294396228e-05,7.425080949506176825e-07,6.488619819485300766e-06,-1.114725217072143337e+00,1.676895842646195234e-01,2.798895269315075041e+00,9.873356362359267946e-01,9.999997615814208984e-01,8.702400142156133667e-01,9.683135760189327534e-01,9.461466596775455207e-01,3.250270497825491489e-02,-6.143257680317337766e-02,7.877633198283223726e-02
1.300000000001091394e-01,8.500000000000000000e+01,3.108988669833247509e-01,1.873124732820418414e-01,9.288935642100094014e+01,nan,nan,nan,9.690819161379113922e-01,9.999997615814208984e-01,8.611812192043636349e-01,9.519787396317971329e-01,-2.827480640839788451e-02,-1.507462053346311781e-01,1.158221732648706953e-01,1.337623092360034349e-01,6.092879193247997538e-01,1.568998816334907509e-01,-2.849229257850096531e+01,1.624724310703036689e+00,2.625174526944570275e+01,-2.849260017478724549e+01,1.605310768793994258e+00,2.626682646512112029e+01,-3.420868697231514797e-04,2.015027804212722422e-03,-2.060636079731443041e-04,3.468594762829705085e-04,1.104982501607784293e-05,-1.406147327056542391e-03,7.001602391119063087e-06,2.291367137775497098e-07,2.007477805916822644e-06,-1.090685078970684785e+00,1.677801242919458313e-01,2.804763264181744375e+00,9.861583987924168460e-01,9.999997615814208984e-01,8.696557852133572908e-01,9.672600931713111194e-01,9.455604091388732924e-01,2.993983749196199584e-02,-6.085768293547150209e-02,7.796085944158570591e-02
1.400000000003274181e-01,8.500000000000000000e+01,3.230910632975588226e-01,2.131179904912635370e-01,9.295111320592006621e+01,nan,nan,nan,9.670939425193203487e-01,9.999997615814208984e-01,8.625715856133120418e-01,9.502313446867505231e-01,3.544654540670713616e-02,-1.092970922538152589e-01,3.574682007566218345e-02,-7.525183639915339340e-02,7.038228301683894239e-01,-1.616483359245847115e-02,-2.780252809770145817e+01,1.624923716542417962e+00,2.629994616124644224e+01,-2.778910002782394528e+01,1.608756281559044155e+00,2.630353234015032271e+01,-8.051063727602131444e-05,1.678495642559674423e-03,5.236650550483988446e-05,-4.351538228106377926e-04,9.283773769685613861e-06,-4.327289565356521261e-04,1.663129131797730668e-06,-2.881255469990328140e-07,-2.530112233398274405e-06,-1.063723980950587622e+00,1.678286709706831026e-01,2.808144505487664588e+00,9.849288745286318703e-01,9.999997615814208984e-01,8.691989038225125253e-01,9.661618578404035373e-01,9.449741586002009530e-01,2.737697000566896577e-02,-6.028278906776951551e-02,7.714538690033934110e-02
1.499999999996362021e-01,8.500000000000000000e+01,3.353113137867629878e-01,2.389105291463564651e-01,9.301291579291803657e+01,nan,nan,nan,9.651059689009100495e-01,9.999997615814208984e-01,8.639619520221339943e-01,9.484839497418628973e-01,3.065197750998840259e-02,-8.616144110492190977e-02,2.035906590696572385e-02,-2.681750213723971266e-01,1.076865409054781203e-01,-1.461404366625787821e-01,-2.702450813506031224e+01,1.621306261668985504e+00,2.631101748647286698e+01,-2.701374143166064457e+01,1.608423623501194610e+00,2.631269242996808799e+01,-3.632477431190588691e-05,1.337353270793212182e-03,6.943392600111707776e-05,-3.765618779417535594e-04,7.533917169003079713e-06,-2.460689013385945301e-04,7.574387547534041667e-07,-2.496661287625533964e-07,-2.196986312120533421e-06,-1.034039556248251168e+00,1.678379928854432102e-01,2.809204029569560390e+00,9.836504355792664578e-01,9.999997615814208984e-01,8.688611570116619998e-01,9.650217562487947154e-01,9.443879080615819044e-01,2.481410251960902702e-02,-5.970789520011987594e-02,7.632991435916702816e-02
1.599999999998544808e-01,8.500000000000000000e+01,3.405061840534104878e-01,2.428202489889354498e-01,9.307017172990089193e+01,nan,nan,nan,9.631179952823190060e-01,9.999997615814208984e-01,8.653523184310824012e-01,9.467365547968163986e-01,-4.016785171285351674e-02,-8.067434306837206748e-02,6.731775481448276643e-02,-4.637323136845362126e-01,2.838004375381439348e-01,-1.572692942443527087e-01,-2.616402191613277495e+01,1.615532177164166194e+00,2.628962556348596280e+01,-2.617168799500684528e+01,1.605977947687055485e+00,2.629866740964982696e+01,-2.045488207266848090e-04,9.910055340507234467e-04,-1.489404482154977510e-04,4.938100102066337324e-04,5.898635071840518845e-06,-8.193358526372978169e-04,4.181932310471075079e-06,3.275531228195901790e-07,2.887861760384101177e-06,-1.001816128190384569e+00,1.678106644193985142e-01,2.808095349395596685e+00,9.823262365998580714e-01,9.999997615814208984e-01,8.686348614325630768e-01,9.638424884778523660e-01,9.438016575229096761e-01,2.225123503331605246e-02,-5.913300133241794487e-02,7.551444181792060784e-02
1.700000000000727596e-01,8.500000000000000000e+01,3.381784703729115438e-01,2.234218435460939844e-01,9.312256618602964409e+01,nan,nan,nan,9.611300216637279625e-01,9.999997615814208984e-01,8.667426848400308081e-01,9.449891598517697888e-01,-3.686335269007449261e-02,-5.944147222134884417e-02,9.596916181545814273e-02,-1.363879829263211219e-01,2.468994836828357187e+00,1.084669759868841510e-01,-2.526422824406533252e+01,1.611538678963718274e+00,2.625801306570222948e+01,-2.526800880645059166e+01,1.604840835117599340e+00,2.626996361162355953e+01,-3.152131578565723832e-04,6.955068329196263145e-04,-1.083529364876584526e-04,4.534970437702062350e-04,3.286241591247759438e-06,-1.170250043101814068e-03,6.428951858788566759e-06,3.007006593290316367e-07,2.655715699346962617e-06,-9.672256387209123840e-01,1.677490804533478541e-01,2.804961318315150720e+00,9.809592287927091370e-01,9.999997615814208984e-01,8.685128292592581012e-01,9.626265804725665509e-01,9.432154069842373367e-01,1.968836754702302239e-02,-5.855810746471595829e-02,7.469896927667413200e-02
1.800000000002910383e-01,8.500000000000000000e+01,3.358331720427983891e-01,2.040256897419195914e-01,9.317498867276137275e+01,nan,nan,nan,9.591420480451368080e-01,9.999997615814208984e-01,8.681330512489792151e-01,9.432417649067232901e-01,-3.355885366729547542e-02,-3.820860137432561393e-02,1.246205688164335051e-01,5.452996541627785909e-01,3.563205104509582721e+00,3.681148380729710318e-02,-2.430686826079177720e+01,1.607546501296322150e+00,2.620856939509124928e+01,-2.430675810956467586e+01,1.603521138022687698e+00,2.622344901544962781e+01,-4.260167225841432178e-04,4.191622516437748785e-04,-6.949831921988360397e-05,4.131240075140503194e-04,7.152249850700041486e-07,-1.521603477407371292e-03,8.676332682138149398e-06,2.736155808405100440e-07,2.420324753541107351e-06,-9.304285083058407846e-01,1.676554698310876168e-01,2.799934922357092404e+00,9.795521730281879780e-01,9.999997615814208984e-01,8.684883362303564835e-01,9.613763952721193773e-01,9.426291564455649974e-01,1.712550006072999231e-02,-5.798321359701408273e-02,7.388349673542760065e-02
1.899999999995998223e-01,8.500000000000000000e+01,3.334702883187113387e-01,1.846317853468437964e-01,9.322743917283267479e+01,nan,nan,nan,9.571540744267266199e-01,9.999997615814208984e-01,8.695234176578011676e-01,9.414943699618356643e-01,4.486386211841816851e-03,-2.735721649283683055e-02,1.033692075932256538e-01,7.236122955002738388e-01,2.178230070412021657e+00,-5.297931868851234460e-01,-2.330237384373878129e+01,1.607064176966219504e+00,2.614969608402707024e+01,-2.329183251617247663e+01,1.605385915202311109e+00,2.616067749848619783e+01,-3.554701566394516095e-04,1.749388662116029588e-04,9.093828472584080736e-05,-5.526617576249537398e-05,2.678244492899495066e-07,-1.263088758395588184e-03,7.234083118417244060e-06,-3.653453158205964911e-08,-3.236396469187217309e-07,-8.915744327337085107e-01,1.675319077072548457e-01,2.793140007695946281e+00,9.781076521198206475e-01,9.999997615814208984e-01,8.685550917523502390e-01,9.600941435161814974e-01,9.420429059069461708e-01,1.456263257467010908e-02,-5.740831972936438765e-02,7.306802419425528772e-02
1.999999999998181011e-01,8.500000000000000000e+01,3.310898184437233716e-01,1.652401281275624190e-01,9.327991766878812996e+01,nan,nan,nan,9.551661008081355764e-01,9.999997615814208984e-01,8.709137840667495745e-01,9.397469750167890545e-01,5.706853183974708310e-02,-2.084985765090570722e-02,6.123654619489178608e-02,2.907581825079392224e-01,1.103665683615262738e+00,-5.141836195804752041e-01,-2.225051598319473811e+01,1.608948731310036795e+00,2.607815265704030594e+01,-2.222679603491161160e+01,1.605922530962956785e+00,2.608221346028383181e+01,-2.087314159485938235e-04,3.156825836314548143e-04,3.192144112362952984e-04,-7.034691279189703075e-04,6.437822395193184748e-07,-7.486677373570367090e-04,4.245409665635629464e-06,-4.638474744905506179e-07,-4.114380482679374715e-06,-8.508031218325298184e-01,1.673803268816528855e-01,2.784691949222374063e+00,9.766280823076782802e-01,9.999997615814208984e-01,8.687072109310886026e-01,9.587818932735859834e-01,9.414566553682738315e-01,1.199976508837707900e-02,-5.683342586166240107e-02,7.225255165300892291e-02
2.100000000000363798e-01,8.500000000000000000e+01,3.356964967854942361e-01,1.580037521849266824e-01,9.334021932341721595e+01,nan,nan,nan,9.535119118047205022e-01,9.999997615814208984e-01,8.715162789220322059e-01,9.411388177828380330e-01,6.878607232647115932e-02,-6.754404934104707089e-03,5.694121623402222110e-02,-2.472635001567341784e-01,7.774425301841459968e-01,6.057435471189213938e-02,-2.123954431132987253e+01,1.614515573137955462e+00,2.596386214729047026e+01,-2.121227204520528886e+01,1.605480182569509973e+00,2.596645143547339529e+01,-1.995605752605596401e-04,9.441745432243328021e-04,4.253592541698614183e-04,-8.484237865590534087e-04,-5.398953288170154794e-07,-6.968524434056549413e-04,4.053162915984142010e-06,-5.572266009164836889e-07,-4.962396490289043951e-06,-8.119669112489362739e-01,1.673052475480229784e-01,2.772380097373797980e+00,9.751372507774193066e-01,9.999997615814208984e-01,8.688883761950757512e-01,9.576440381418728220e-01,9.415416925227528822e-01,1.156734454205271545e-02,-5.805519431875311165e-02,7.042828834063546983e-02
2.200000000002546585e-01,8.500000000000000000e+01,3.408218647219192765e-01,1.516742168799182222e-01,9.340113816243251676e+01,nan,nan,nan,9.519957852531051312e-01,9.999997615814208984e-01,8.717928885403789518e-01,9.438291351803396179e-01,5.225845109775308084e-02,1.258585408553924631e-02,7.879862998962038068e-02,-2.625567828910597146e-01,4.277819763375028117e-01,3.098617171824716299e-01,-2.030931779777564472e+01,1.621959522182937707e+00,2.580273072807166201e+01,-2.028514755133626224e+01,1.605982397465383515e+00,2.580773546038841459e+01,-2.860741321514136039e-04,1.670795605107258013e-03,4.347433463642640062e-04,-6.449188619445238605e-04,-2.746904706981770728e-06,-9.653132921312757454e-04,5.801290993670766752e-06,-4.212232932196622619e-07,-3.780078750479824070e-06,-7.764750307974013221e-01,1.673438910230739263e-01,2.755508342364237251e+00,9.736447878949694434e-01,9.999997615814208984e-01,8.690756969532372755e-01,9.567530733983878877e-01,9.419043926388110943e-01,1.201613515582244940e-02,-6.002011148413821662e-02,6.818676155690372997e-02
2.299999999995634425e-01,8.500000000000000000e+01,3.459406891987356625e-01,1.453393217682504845e-01,9.346208936963387259e+01,nan,nan,nan,9.504796587016275389e-01,9.999997615814208984e-01,8.720694981587004957e-01,9.465194525775966206e-01,1.048309820863735364e-03,2.404601451948084126e-02,9.131324176747275534e-02,2.679385652870079904e-01,2.769752526046316832e-01,8.824839490808836229e-02,-1.944855427625642008e+01,1.627073769877881437e+00,2.560274778189805289e+01,-1.943958800139839838e+01,1.604729409897413417e+00,2.561027971025978900e+01,-3.370963788605314338e-04,2.336234042682418764e-03,3.152360879367855002e-04,-1.294340055236604690e-05,-4.011979331072109998e-06,-1.119336012840949730e-03,6.827593836639480811e-06,-8.394088324084844796e-09,-7.617284380080831070e-08,-7.441057159350221717e-01,1.674885909993988342e-01,2.734384391352673305e+00,9.721507988711587389e-01,9.999997615814208984e-01,8.692687762191935175e-01,9.560930763376118691e-01,9.422670927548363329e-01,1.246492576955138265e-02,-6.198502864934474221e-02,6.594523477337566053e-02
2.399999999997817213e-01,8.500000000000000000e+01,3.510529704471719303e-01,1.389990667759378462e-01,9.352307290461577338e+01,nan,nan,nan,9.489635321500120568e-01,9.999997615814208984e-01,8.723461077770473526e-01,9.492097699750982054e-01,-9.153746942317680935e-02,2.610535558923349209e-02,9.268205469590208578e-02,7.236985457775652053e-01,2.825639693632015503e-01,-2.765486990038844017e-01,-1.864948286891467077e+01,1.629580495600639445e+00,2.536655784425849092e+01,-1.867018553183333651e+01,1.601434030479152559e+00,2.537676795160070853e+01,-3.452147874634885053e-04,2.941264494177288791e-03,3.980282073260868860e-05,1.130689739108797429e-03,-4.177635248632700994e-06,-1.136618413195370761e-03,6.984157636461224726e-06,7.270124531043785474e-07,6.693131691172495083e-06,-7.146538968885174370e-01,1.677322569287963416e-01,2.709292970875910811e+00,9.706553821314358732e-01,9.999997615814208984e-01,8.694672426094168793e-01,9.556491511573423914e-01,9.426297928708945451e-01,1.291371638332100558e-02,-6.394994581472984718e-02,6.370370798964369863e-02
2.500000000000000000e-01,8.500000000000000000e+01,3.561587086969016935e-01,1.326534518303330856e-01,9.358408872662015199e+01,nan,nan,nan,9.474474055983965748e-01,9.999997615814208984e-01,8.726227173953940985e-01,9.519000873725999012e-01,-6.807012322239004709e-02,1.579693906561317057e-02,8.217997870699961238e-02,6.984998966631879025e-01,3.475888350415146655e-01,-4.862847548607233672e-01,-1.795781274356964730e+01,1.640551705292878859e+00,2.509852609053842443e+01,-1.797195927371634738e+01,1.606550141041563018e+00,2.510625767507438866e+01,-3.058098359088151879e-04,3.551380754896394775e-03,1.775477672141425982e-04,8.411318769625015937e-04,-2.970826680086301442e-06,-1.008057446508217256e-03,6.180601554244485136e-06,5.354429002291553078e-07,5.016501062718931068e-06,-6.879297885247079858e-01,1.680683255628378781e-01,2.680497745738783522e+00,9.691586297535046413e-01,9.999997615814208984e-01,8.696707486920212116e-01,9.554073627305555982e-01,9.429924929869528683e-01,1.336250699709073952e-02,-6.591486298011506317e-02,6.146218120591179224e-02
2.600000000002182787e-01,8.500000000000000000e+01,3.595863984691828885e-01,1.257471445416826206e-01,9.362078079026338173e+01,nan,nan,nan,9.459312790467810927e-01,9.999997615814208984e-01,8.728993270137408444e-01,9.545904047701014861e-01,6.063139979458231910e-03,8.906623856924297811e-05,6.649536695864194380e-02,2.114675165100484977e-01,5.703043221843178134e-01,-3.853404926434159661e-01,-1.734862009766878188e+01,1.654207323445090028e+00,2.480052953598923438e+01,-1.734039055910364624e+01,1.614532275477063683e+00,2.480349363095365689e+01,-2.450126134958520116e-04,4.142347607373015814e-03,4.996766964680476267e-04,-7.494572198950725053e-05,-1.179849279891101158e-06,-8.156989952482645613e-04,4.947033473303407209e-06,-4.716745724005557423e-08,-4.510142100931305168e-07,-6.637576150295361188e-01,1.684907171083959154e-01,2.648243056696141906e+00,9.676606278767000413e-01,9.999997615814208984e-01,8.698789694420505647e-01,9.553546746485835905e-01,9.433551931030110804e-01,1.381129761086041796e-02,-6.787978014550022365e-02,5.922065442217983033e-02
2.700000000004365575e-01,8.500000000000000000e+01,3.628407220796694976e-01,1.187825583513385796e-01,9.365501935698208058e+01,nan,nan,nan,9.444151524951656107e-01,9.999997615814208984e-01,8.731759366320875904e-01,9.572807221676031819e-01,3.938612818479736433e-03,-5.614201018639213524e-03,7.119627706268341627e-02,-3.008957367135399741e-01,6.549811014313517976e-01,-5.110739514851494331e-03,-1.677930079886156989e+01,1.663978412539421470e+00,2.446800720918393068e+01,-1.677128925388036507e+01,1.619271592904065749e+00,2.447113049734439727e+01,-2.632781338827803867e-04,4.667042197927188246e-03,5.403378906314179001e-04,-4.869836198691322292e-05,-6.954288916021438916e-07,-8.735119796503495494e-04,5.309579409838456853e-06,-3.025990331849954856e-08,-2.961146786621863218e-07,-6.419744550808550443e-01,1.689937955096198485e-01,2.612755495976038844e+00,9.661614570849715866e-01,9.999997615814208984e-01,8.700916007963879206e-01,9.554788912600574724e-01,9.437178932190692926e-01,1.426008822463015191e-02,-6.984469731088543965e-02,5.697912763844781292e-02
2.799999999997453415e-01,8.500000000000000000e+01,3.660909489581165022e-01,1.118160509841343159e-01,9.368926824913293672e+01,nan,nan,nan,9.428990259436880184e-01,9.999997615814208984e-01,8.734525462504091342e-01,9.599710395648600736e-01,-3.698212269799878993e-02,-6.227617646860285350e-03,8.626833678212392220e-02,-3.105318821364588255e-01,3.626214828738746898e-01,3.063072185350935173e-01,-1.625700175496843158e+01,1.671806604261487417e+00,2.410443614796542278e+01,-1.626066890318749714e+01,1.622536894108595362e+00,2.411028736541593531e+01,-3.235128009556139284e-04,5.143154261929069188e-03,4.311543421560768536e-04,4.573684165109103317e-04,-8.619675543057739207e-07,-1.058696225774665269e-03,6.515940640337587296e-06,2.802205527708002942e-07,2.813528482950713612e-06,-6.224291948347557835e-01,1.695723324235424989e-01,2.574245337531419153e+00,9.646611927651758123e-01,9.999997615814208984e-01,8.703083583018620395e-01,9.557686034479192516e-01,9.440805933350945311e-01,1.470887883835902965e-02,-7.180961447609190973e-02,5.473760085491991001e-02
2.899999999999636202e-01,8.500000000000000000e+01,3.693370792620342402e-01,1.048476223372215577e-01,9.372352745995503653e+01,nan,nan,nan,9.413828993920725363e-01,9.999997615814208984e-01,8.737291558687558801e-01,9.626613569623617694e-01,-3.002518835071224176e-02,-2.058292088634244496e-02,8.347296297197659420e-02,-9.366622045770452154e-02,-1.288009343334194923e-01,4.097382096731195245e-01,-1.580307098261884668e+01,1.679488850092228924e+00,2.371753933850146723e+01,-1.580478337068622707e+01,1.629205061810491628e+00,2.372287955084095756e+01,-3.121359504893000654e-04,5.247629824848628818e-03,4.518743873825421722e-04,3.714035819892533611e-04,5.639775826556065867e-07,-1.024357202526012065e-03,6.279372185122062289e-06,2.240746306031490611e-07,2.313940180147900897e-06,-6.049815774847284722e-01,1.702214745055600775e-01,2.532907837002248641e+00,9.631599054422259609e-01,9.999997615814208984e-01,8.705289758505475595e-01,9.562131379034995993e-01,9.444432934511527433e-01,1.515766945212876360e-02,-7.377453164147712572e-02,5.249607407118789260e-02
3.000000000001818989e-01,8.500000000000000000e+01,3.725791131477634299e-01,9.787727230948298218e-02,9.375779698264457807e+01,nan,nan,nan,9.409626113076370313e-01,9.999997615814208984e-01,8.731625579231677703e-01,9.620512249204917765e-01,1.735667640008986545e-02,-4.654101957114389204e-02,6.559143816539284022e-02,1.138203272452009522e-02,-6.538152536259650427e-01,4.772799309472441354e-01,-1.537881973858162787e+01,1.683259260794936596e+00,2.336729167607297342e+01,-1.536712851768468546e+01,1.637428014831566303e+00,2.336963463256532947e+01,-2.375488772881605430e-04,4.780487210991129880e-03,5.558097678611949744e-04,-2.147436095065757312e-04,3.320080714973728652e-06,-8.046107373613581521e-04,4.774477405980611603e-06,-1.277229665300672832e-07,-1.354039778425927721e-06,-5.882321641693314396e-01,1.708301216773113196e-01,2.495098004775353928e+00,9.617283350193462921e-01,9.999997615814208984e-01,8.706988234985775232e-01,9.565896537368732133e-01,9.440440389331793414e-01,1.492575836177006954e-02,-7.396290863555393669e-02,5.287429502269924697e-02
3.100000000004001777e-01,8.500000000000000000e+01,3.798687369186103391e-01,8.851419696989136499e-02,9.380489086511205699e+01,nan,nan,nan,9.412199731315001872e-01,9.999997615814208984e-01,8.720745331929842248e-01,9.594001449406551751e-01,5.350901898314740224e-02,-3.720218882076059552e-02,4.855990102848215667e-02,4.075447754351244067e-01,-1.065528909209738417e+00,6.967594784314888878e-01,-1.494793254651176717e+01,1.682704278690017707e+00,2.308285208324983628e+01,-1.492609711852100141e+01,1.643223250056784712e+00,2.308288485908000709e+01,-1.771677347269047704e-04,4.118525299455520761e-03,5.965297797956194007e-04,-6.622092304126210322e-04,2.733633550952674805e-06,-5.958106496938501539e-04,3.557733365927508336e-06,-3.892936219334000992e-07,-4.218571140087839502e-06,-5.713473272855545959e-01,1.713350121008609950e-01,2.464403847822669746e+00,9.604056889291363586e-01,9.999997615814208984e-01,8.707875471644910270e-01,9.567709107881472441e-01,9.431736032116401214e-01,1.427291164887511954e-02,-7.305270009879583082e-02,5.487252828964078732e-02
3.199999999997089617e-01,8.500000000000000000e+01,3.876334501931493204e-01,7.885983978522294324e-02,9.385353222081789681e+01,nan,nan,nan,9.414773349553400283e-01,9.999997615814208984e-01,8.709865084628997112e-01,9.567490649610598252e-01,8.656934034719412918e-02,-1.814443565999987462e-02,3.176240590029343058e-02,8.310354549636770338e-01,-1.298783050127356731e+00,1.093428394930453296e+00,-1.451266974481757899e+01,1.680756783227000062e+00,2.285967886026025653e+01,-1.448161598035447462e+01,1.647230368867206085e+00,2.285745572322803909e+01,-1.193920103790228210e-04,3.498757849845278260e-03,6.341849936294586447e-04,-1.071683764381798449e-03,1.217577627951095441e-06,-3.899362372881486180e-04,2.395911549268758974e-06,-6.242748943809909555e-07,-6.886745251361719909e-06,-5.543304789931167154e-01,1.717428991339576827e-01,2.440362769764156781e+00,9.591849423129774621e-01,9.999997615814208984e-01,8.708003787784873717e-01,9.567695018848939581e-01,9.423031674901801713e-01,1.362006493603962198e-02,-7.214249156212049208e-02,5.687076155640063968e-02
3.299999999999272404e-01,8.500000000000000000e+01,3.953901053270805210e-01,6.919892345665015765e-02,9.390219422104038927e+01,nan,nan,nan,9.417346967792031842e-01,9.999997615814208984e-01,8.698984837327161657e-01,9.540979849812232239e-01,5.255842229439224716e-02,2.477101257677982032e-02,4.294189827338118493e-02,6.720970643681812851e-01,-1.283574623319065466e+00,1.502251320155420844e+00,-1.405546384944055127e+01,1.677656442959663430e+00,2.268762500302742779e+01,-1.403384002085644688e+01,1.649946366848906942e+00,2.268875458460114558e+01,-1.804643462547077931e-04,2.895618236690126676e-03,4.117274781847695287e-04,-6.508749488667018614e-04,-2.976276220138920940e-06,-5.281186676134784442e-04,3.619691786298858108e-06,-3.766040974718865115e-07,-4.213051400129685237e-06,-5.371865304611079805e-01,1.720601288774201987e-01,2.422540603688283056e+00,9.580595233665657462e-01,9.999997615814208984e-01,8.707422128478005119e-01,9.565972077052371514e-01,9.414327317686408403e-01,1.296721822314467198e-02,-7.123228302536238621e-02,5.886899482334229106e-02
3.400000000001455192e-01,8.500000000000000000e+01,4.031387031250562858e-01,5.953144771466850615e-02,9.395087684517118021e+01,nan,nan,nan,9.419920586030664511e-01,9.999997615814208984e-01,8.688104590025327312e-01,9.514469050013867335e-01,-1.819063479683137585e-02,8.075446621135309866e-02,6.944573034325315919e-02,4.279259026195694204e-01,-1.013050671081814791e+00,1.739446214324432249e+00,-1.358508336513726533e+01,1.671988040139515075e+00,2.257040575442145780e+01,-1.358308389433308605e+01,1.649864264191864605e+00,2.257797837936251639e+01,-3.080723245296981458e-04,2.317681096439376705e-03,4.500492017521304916e-05,2.253579802382272082e-04,-8.620914126212902274e-06,-8.549935477753973796e-04,6.178351857075723222e-06,1.298202613333402088e-07,1.467398728003981229e-06,-5.199215566799147981e-01,1.722926621392215640e-01,2.410529993877005950e+00,9.570232841210694064e-01,9.999997615814208984e-01,8.706176282181424808e-01,9.562650491558659649e-01,9.405622960471016203e-01,1.231437151024977750e-02,-7.032207448860422483e-02,6.086722809028388692e-02
3.500000000003637979e-01,8.500000000000000000e+01,4.108792443919512261e-01,4.985741228777890860e-02,9.399958007246955560e+01,nan,nan,nan,9.422494204269296070e-01,9.999997615814208984e-01,8.677224342723491857e-01,9.487958250215502432e-01,-1.052316816564173585e-02,6.753279007430990077e-02,9.362680159040882855e-02,4.180907896729672002e-01,-7.805506704566104181e-01,1.851886227008340047e+00,-1.313600528738238182e+01,1.668721519972334200e+00,2.250505939426827950e+01,-1.312910836384238067e+01,1.651516701039898116e+00,2.251586983253093521e+01,-4.024979261306103851e-04,1.803397910709086688e-03,-2.507206836060873849e-06,1.304239879104781218e-04,-7.703656375557624099e-06,-1.152565207662260794e-03,8.072640089226170140e-06,7.496557243124388270e-08,8.532504964049998502e-07,-5.025425142058522754e-01,1.724460955685866714e-01,2.403948852461891050e+00,9.560704731087024122e-01,9.999997615814208984e-01,8.704309084316601552e-01,9.557833363719693276e-01,9.396918603255625113e-01,1.166152479735488301e-02,-6.941186595184617447e-02,6.286546135722548279e-02
3.599999999996725819e-01,8.500000000000000000e+01,4.177482427156677947e-01,2.060461769258955730e-02,9.408966880521597886e+01,nan,nan,nan,9.425067822507694482e-01,9.999997615814208984e-01,8.666344095422646721e-01,9.461447450419547822e-01,4.321820769092228620e-02,1.364939220284208665e-02,1.164431263990332310e-01,2.393446239498022987e-01,-6.888126491294289666e-01,2.036045340458286113e+00,-1.269823269549444689e+01,1.669023880369610913e+00,2.248880016068076060e+01,-1.267201080982185779e+01,1.656227983608668630e+00,2.250092235320366996e+01,-4.774079644332572189e-04,1.338812184448478831e-03,1.423305252048712123e-04,-5.358936213634835207e-04,-2.920402858003933637e-06,-1.433085893182154714e-03,9.576980637275698974e-06,-3.079759932479901825e-07,-3.518423678430376359e-06,-4.850570044168311945e-01,1.725256819372455452e-01,2.402438890016885153e+00,9.551957097911751848e-01,9.999997615814208984e-01,8.701860607719589247e-01,9.551617145570485690e-01,9.388214246041024502e-01,1.100867808451932994e-02,-6.850165741517078022e-02,6.486369462398539065e-02
3.699999999998908606e-01,8.500000000000000000e+01,4.244231886890860173e-01,-1.189831006065049900e-02,9.418668684403149882e+01,nan,nan,nan,9.427641440746327151e-01,9.999997615814208984e-01,8.655463848120811265e-01,9.434936650621182919e-01,4.972644959599056835e-02,-4.645822335143341003e-02,1.422181827265452392e-01,-1.465626109931694732e-02,-5.424684830542938485e-01,2.310351433745422955e+00,-1.224263373258230914e+01,1.666202561587778019e+00,2.251743990900887837e+01,-1.221212560705540184e+01,1.657668521890194535e+00,2.253292621943103669e+01,-5.621757700393133911e-04,8.886749311900302454e-04,1.009027518689642954e-04,-6.168991946740846498e-04,2.428684302570880462e-06,-1.750299426385616784e-03,1.128113664947633548e-05,-3.551646917620733540e-07,-4.060459657767145039e-06,-4.674730758414546994e-01,1.725363495561322846e-01,2.405664218672161070e+00,9.543939606373377238e-01,9.999997615814208984e-01,8.698868340808301181e-01,9.544092068663202477e-01,9.379509888825632302e-01,1.035583137162449097e-02,-6.759144887841267435e-02,6.686192789092709754e-02
3.800000000001091394e-01,8.500000000000000000e+01,4.310437035646332848e-01,-4.441249170750470598e-02,9.428379292404555656e+01,nan,nan,nan,9.430215058984958709e-01,9.999997615814208984e-01,8.644583600818976921e-01,9.408425850822816905e-01,6.994921139982263059e-03,-1.130544841313360360e-01,1.710776683147211263e-01,-2.420817271916467922e-02,-4.234218594433220573e-01,2.583516349985375715e+00,-1.176868744693326896e+01,1.657692089705401939e+00,2.258258544135091128e+01,-1.174960325565072949e+01,1.653299364015143436e+00,2.260359637643573194e+01,-6.568708600289982578e-04,4.501739369305757677e-04,-1.369056564410846136e-04,-8.682357472092088380e-05,8.371121261690232042e-06,-2.105837513159501163e-03,1.318738430250540779e-05,-5.016690433551590893e-08,-5.723500191074174123e-07,-4.497990599840399062e-01,1.724827208251867305e-01,2.413310025989989782e+00,9.536605167436382757e-01,9.999997615814208984e-01,8.695367354259614379e-01,9.535342545245318879e-01,9.370805531610240102e-01,9.702984658729485457e-03,-6.668124034165451297e-02,6.886016115786874892e-02
3.900000000003274181e-01,8.500000000000000000e+01,4.376097937822951978e-01,-7.693793772803753095e-02,9.438098691651663330e+01,nan,nan,nan,9.432788677223591378e-01,9.999997615814208984e-01,8.633703353517141466e-01,9.381915051024452001e-01,2.477935188824201967e-02,-1.564528185228711565e-01,2.219454716781003867e-01,-7.603267847127534451e-02,-5.995068349491179394e-01,2.838309255182794200e+00,-1.131455511066370789e+01,1.656032337974381763e+00,2.268942424439719119e+01,-1.128478331518551947e+01,1.655034672406997975e+00,2.271575696933423671e+01,-8.489203560805077143e-04,9.244709853262778076e-05,-7.607071471355818823e-05,-3.077409181253800080e-04,1.186394224342079756e-05,-2.733416846112825434e-03,1.705277944121848610e-05,-1.787552400246184951e-07,-2.029884097962290892e-06,-4.320434358129423558e-01,1.723691299213881423e-01,2.425081317591235575e+00,9.529909728979124584e-01,9.999997615814208984e-01,8.691390456936719522e-01,9.525447543563970720e-01,9.362101174394847902e-01,9.050137945834646480e-03,-6.577103180489640710e-02,7.085839442481034478e-02
3.999999999996362021e-01,8.500000000000000000e+01,4.441214656805728689e-01,-1.094746586211450406e-01,9.447826869043710474e+01,nan,nan,nan,9.431935913292627260e-01,9.999997615814208984e-01,8.648524731622101447e-01,9.380840247176218671e-01,6.492369195529430759e-02,-1.912798018604892347e-01,2.809450802039372697e-01,-9.050863402720171758e-02,-1.085092345120207913e+00,2.991824200842800874e+00,-1.086309623428065763e+01,1.660413054379547670e+00,2.277729727934812942e+01,-1.081446352561984270e+01,1.662085715617587001e+00,2.280841588406259035e+01,-1.076502122027324241e-03,-1.886005711583538518e-04,1.447159667544274740e-04,-8.067001921712954084e-04,1.448549334271612341e-05,-3.461897152535061209e-03,2.163343589948272592e-05,-4.705181384246459153e-07,-5.319627392931699090e-06,-4.140859796822985439e-01,1.722324936819642494e-01,2.434409819017517407e+00,9.523591102217545679e-01,9.999997615814208984e-01,8.688625917072373417e-01,9.516121383033497860e-01,9.365324626976290201e-01,8.212690651626775029e-03,-6.501886090378494742e-02,7.012842751542580633e-02
4.099999999998544808e-01,8.500000000000000000e+01,4.660854476572998117e-01,-1.786383614328649339e-01,9.466399394538758827e+01,nan,nan,nan,9.429663848927047898e-01,9.999997615814208984e-01,8.673992420123377567e-01,9.390301722796167150e-01,7.469844411222829883e-02,-1.779065798310480451e-01,3.184056615083305508e-01,6.414900281313662411e-02,-1.654790462012424745e+00,3.106535607942161104e+00,-1.039460870828113492e+01,1.660161311681185969e+00,2.281613694541181658e+01,-1.033879199761021006e+01,1.664338436506777708e+00,2.285054812606531272e+01,-1.232813800381896314e-03,-4.483192195778423197e-04,2.576888772208814414e-04,-9.285239579982971191e-04,1.287049152571806998e-05,-3.925618255278135078e-03,2.477875652173535840e-05,-5.426194279127784373e-07,-6.116317519461731971e-06,-3.958851229928257442e-01,1.720878819347250455e-01,2.438850679415594414e+00,9.517533450465143208e-01,9.999997615814208984e-01,8.687682158734602034e-01,9.508006893802495307e-01,9.373488901915200122e-01,7.298776789281424815e-03,-6.433215347799753348e-02,6.826836609108560827e-02
4.200000000000727596e-01,8.500000000000000000e+01,4.912789587869603736e-01,-2.561153663633652933e-01,9.486994617605520830e+01,nan,nan,nan,9.427391784561468535e-01,9.999997615814208984e-01,8.699460108624652577e-01,9.399763198416114518e-01,6.368107947158049842e-02,-1.315337562735663934e-01,3.411198468103245340e-01,-1.236221201999554847e-01,-1.913394418514101192e+00,3.340211964385118915e+00,-9.913003117738073300e+00,1.654910057268008439e+00,2.280949476294286171e+01,-9.858012549915510903e+00,1.661527843566665830e+00,2.284632082348123916e+01,-1.340048590785799772e-03,-6.986217039474496666e-04,2.810668270699427608e-04,-7.918194224329010806e-04,8.346689849844136921e-06,-4.207740540698115365e-03,2.693221018865805602e-05,-4.626789704555376348e-07,-5.206176471137815761e-06,-3.774536033243816036e-01,1.719357193630262348e-01,2.438724082135884430e+00,9.511719942656742255e-01,9.999997615814208984e-01,8.688441754233158232e-01,9.501025931535708180e-01,9.381653176854111154e-01,6.384862926936074601e-03,-6.364544605221011953e-02,6.640830466674546573e-02
4.300000000002910383e-01,8.500000000000000000e+01,5.161968444194662275e-01,-3.336841809589946584e-01,9.507629573052062710e+01,nan,nan,nan,9.425119720195889172e-01,9.999997615814208984e-01,8.724927797125928697e-01,9.409224674036062996e-01,2.870264755079062619e-02,-1.144732635289162220e-01,3.719106351369848573e-01,-6.582388293739804830e-01,-1.799605473142832590e+00,3.593763873030875633e+00,-9.417827584278073871e+00,1.643789701832640393e+00,2.276088375611443482e+01,-9.370910995386775966e+00,1.652751715577436276e+00,2.280198711206347184e+01,-1.468409413174277724e-03,-9.417298648786296333e-04,2.027560327114120379e-04,-3.569734432574508303e-04,6.519385500782003815e-06,-4.588977205088050869e-03,2.950382437677061853e-05,-2.081666700173745858e-07,-2.341066127998779712e-06,-3.588027775269523323e-01,1.717763935028483457e-01,2.434327090888725564e+00,9.506134833213309987e-01,9.999997615814208984e-01,8.690794849143579359e-01,9.495105391661667893e-01,9.389817451793023295e-01,5.470949064590724387e-03,-6.295873862642270558e-02,6.454824324240526767e-02
4.399999999995998223e-01,8.500000000000000000e+01,5.408392411096750729e-01,-4.113449493066938523e-01,9.528304138968701409e+01,nan,nan,nan,9.422847655830516311e-01,9.999997615814208984e-01,8.750395485624887781e-01,9.418686149655151052e-01,-2.390657141456090096e-02,-1.189810697431152170e-01,4.086442667546015262e-01,-9.287429258103654384e-01,-1.597736001586245846e+00,3.751770217388891826e+00,-8.911314491379785707e+00,1.626540858306284587e+00,2.267284441917463766e+01,-8.877823902189623695e+00,1.637744729791885456e+00,2.271959624640304298e+01,-1.611693623998647221e-03,-1.176281217323946757e-03,4.952176943032604182e-05,2.973690991618687849e-04,6.693805275425203706e-06,-5.043109237502174658e-03,3.236758126760495499e-05,1.727476667467630255e-07,1.943870647163101772e-06,-3.399427991465587828e-01,1.716102587397154156e-01,2.425935491754749762e+00,9.500763392035687094e-01,9.999997615814208984e-01,8.694638673884292901e-01,9.490176884343068942e-01,9.397981726731190477e-01,4.557035202328529877e-03,-6.227203120069779718e-02,6.268818181823421209e-02
4.499999999998181011e-01,8.500000000000000000e+01,5.652062826850183797e-01,-4.890978165330502336e-01,9.549018188863517764e+01,nan,nan,nan,9.420575591464936949e-01,9.999997615814208984e-01,8.775863174126163901e-01,9.428147625275098420e-01,6.841181134143448084e-03,-1.108834156306593294e-01,4.335255645063947894e-01,-8.169706904743494480e-01,-1.434671500544921319e+00,3.829874266130675498e+00,-8.425923533625743644e+00,1.631407189339086683e+00,2.256025127855297896e+01,-8.379923058785511358e+00,1.644447608783049741e+00,2.260821675778004902e+01,-1.710029496798203333e-03,-1.366897589837245399e-03,2.301290020502835593e-04,-8.510259430809623813e-05,5.840664000334806397e-06,-5.350798792058757483e-03,3.432018678077566404e-05,-4.916566534374646496e-08,-5.541594104226047065e-07,-3.208827721783436004e-01,1.714376398232587695e-01,2.413805469839278572e+00,9.495591839013195479e-01,9.999997615814208984e-01,8.699877086794191028e-01,9.486176430409520854e-01,9.406146001670101509e-01,3.643121339983124152e-03,-6.158532377491032772e-02,6.082812039389418057e-02
4.600000000000363798e-01,8.500000000000000000e+01,5.740142692827673310e-01,-5.852864047518109292e-01,9.576972456607546746e+01,nan,nan,nan,9.418303527099356476e-01,9.999997615814208984e-01,8.801330862627440021e-01,9.437609100895046899e-01,5.676206243334441792e-02,-9.988635059424172402e-02,4.556806796830929485e-01,-8.249942565699025510e-01,-1.392007980030395720e+00,3.801685560255813723e+00,-7.941584898826701711e+00,1.643069486591088202e+00,2.241666806413604007e+01,-7.877135235152452175e+00,1.657761061021294946e+00,2.246486315245217469e+01,-1.796935139055468901e-03,-1.537810614910661150e-03,4.833597201613715547e-04,-7.061121754292795606e-04,4.768698821483864643e-06,-5.624521283209512647e-03,3.603506251245994007e-05,-4.050360309478979790e-07,-4.577508180866765673e-06,-3.016308842786628031e-01,1.712588349601777415e-01,2.398175137227912757e+00,9.490607282756055030e-01,9.999997615814208984e-01,8.706420146677603666e-01,9.483044176900169431e-01,9.414310276609013650e-01,2.729207477637718426e-03,-6.089861634912296928e-02,5.896805896955387150e-02
4.700000000002546585e-01,8.500000000000000000e+01,5.783472435226121311e-01,-6.862884378159613830e-01,9.606884599058535912e+01,nan,nan,nan,9.416031462733777113e-01,9.999997615814208984e-01,8.826798551128715031e-01,9.447070576514995377e-01,6.050649335561450459e-02,-1.353123243712542056e-01,4.761344038005210222e-01,-1.127745500369089937e+00,-1.455695470449817064e+00,3.667831784876618428e+00,-7.435444196165279074e+00,1.641583580364697204e+00,2.223935315159778980e+01,-7.368186181107182264e+00,1.657923073069360820e+00,2.228931766566909545e+01,-1.859105110207866056e-03,-1.713147272448001593e-03,5.466063126989179110e-04,-7.526515335209085647e-04,8.125294712177140246e-06,-5.876410318939792425e-03,3.724596776452545184e-05,-4.280001534688361180e-07,-4.854798515322675820e-06,-2.821945221582621288e-01,1.710741185385961649e-01,2.379265927059272201e+00,9.485797663279078584e-01,9.999997615814208984e-01,8.714183712917739077e-01,9.480724130952061790e-01,9.422474551547923571e-01,1.815293615292423723e-03,-6.021190892333561084e-02,5.710799754521367344e-02
4.799999999995634425e-01,8.500000000000000000e+01,5.821597584751609933e-01,-7.873212099416270204e-01,9.636884167830365300e+01,nan,nan,nan,9.413759398368404252e-01,9.999997615814208984e-01,8.852266239627675226e-01,9.456532052134082322e-01,5.146867907781137175e-02,-1.835888022480282877e-01,4.961171606259939248e-01,-1.401320129730563302e+00,-1.683682771840210979e+00,3.579175523956469096e+00,-6.919825215235741567e+00,1.636041352506145241e+00,2.203203978802280361e+01,-6.854108341954027850e+00,1.653950281665452771e+00,2.208421442568457493e+01,-1.913659288854281486e-03,-1.881624768713301924e-03,5.554880059323066529e-04,-6.401560808967059072e-04,1.272372654520215784e-05,-6.122013027818960611e-03,3.829671061993411313e-05,-3.603474492334335765e-07,-4.106362421853209650e-06,-2.625803715259127369e-01,1.708837435301023555e-01,2.357283866918205462e+00,9.481151698381898862e-01,9.999997615814208984e-01,8.723089071379714898e-01,9.479163910850738617e-01,9.430638826486092974e-01,9.013797530301181915e-04,-5.952520149761059143e-02,5.524793612104278440e-02
4.899999999997817213e-01,8.500000000000000000e+01,5.854518143700487842e-01,-8.883850374034581998e-01,9.666970751005571572e+01,nan,nan,nan,9.411487334002824889e-01,9.999997615814208984e-01,8.877733928128950236e-01,9.465993527754030801e-01,2.143809263690461819e-03,-2.073228575675662155e-01,5.482311503732888447e-01,-1.569555490907126094e+00,-2.128248394719209013e+00,3.599457148970519160e+00,-6.390338635604104311e+00,1.616558405074355331e+00,2.178618165247750937e+01,-6.335799240980152902e+00,1.636090025206843768e+00,2.184577142914298165e+01,-2.103040913497464335e-03,-2.053358625209622274e-03,4.018464568863537026e-04,-2.665974969062812611e-05,1.474216710017804182e-05,-6.764014478054996247e-03,4.203492403859559697e-05,-1.483388820968928908e-08,-1.699835253459851850e-07,-2.427945036409241419e-01,1.706879436098572844e-01,2.332420743316468759e+00,9.476658833487235922e-01,9.999997615814208984e-01,8.733062584440827170e-01,9.478314513136543162e-01,9.438803101425002895e-01,-1.253410931517651150e-05,-5.883849407182323299e-02,5.338787469670258634e-02
5.000000000000000000e-01,8.500000000000000000e+01,5.882234017185382635e-01,-9.894802370518736012e-01,9.697143915139287174e+01,nan,nan,nan,9.409215269637245527e-01,9.999997615814208984e-01,8.903201616630226356e-01,9.475455003373979279e-01,-6.794424828615018563e-02,-2.184082117010011370e-01,6.169049708759088979e-01,-1.697320616618978040e+00,-2.512098950860657265e+00,3.621909393258784693e+00,-5.851581898625967781e+00,1.584136850750995862e+00,2.150871146631741837e+01,-5.813242577508147768e+00,1.605888535647518989e+00,2.157812978902858703e+01,-2.359401562117248267e-03,-2.286298848386353767e-03,1.928034422047748223e-04,8.447486528239949322e-04,1.548223491191300991e-05,-7.609876252091505450e-03,4.709560118973323169e-05,4.639656690143033729e-07,5.351244175895702987e-06,-2.228424502655693695e-01,1.704869350300429742e-01,2.304855167768241841e+00,9.472309194714337854e-01,9.999997615814208984e-01,8.744035363590524357e-01,9.478130094730624622e-01,9.446967376363915037e-01,-9.264479716605267257e-04,-5.815178664603581904e-02,5.152781327236249931e-02
5.100000000002182787e-01,8.500000000000000000e+01,5.239980163942585811e-01,-1.129699319106542754e+00,9.738150478531622412e+01,nan,nan,nan,9.402550953619669416e-01,9.992386837188245163e-01,8.939713575654474331e-01,9.492787325420619648e-01,-9.683236100076342279e-02,-2.402912479646967525e-01,6.712941190227960098e-01,-1.311451689909338691e+00,-2.557629599263721243e+00,3.809018493638355540e+00,-5.323029301997266316e+00,1.563958424126070224e+00,2.118116776033195947e+01,-5.289140101374155023e+00,1.588640218364051337e+00,2.125687354002678475e+01,-2.551645048054202933e-03,-2.594264971171934310e-03,1.879603182079133436e-04,1.203573300341879071e-03,1.742881789912119233e-05,-8.278555894460359887e-03,5.085670607405225543e-05,6.505765064923116136e-07,7.568817629313035171e-06,-2.028443702203747145e-01,1.702679315770989632e-01,2.271112072748245225e+00,9.467810275427250843e-01,9.999506773754363032e-01,8.756655241450150839e-01,9.479075383728909898e-01,9.456859672970752140e-01,-1.838106690121521503e-03,-5.714548166673605323e-02,4.812184448664102998e-02
5.200000000004365575e-01,8.500000000000000000e+01,4.373243927568258305e-01,-1.281912148068844681e+00,9.782819930669153052e+01,nan,nan,nan,9.393253534724338438e-01,9.980213486858798833e-01,8.982846444134925390e-01,9.514838126739063595e-01,-8.884585945543335694e-02,-2.718383836597684233e-01,7.128982553194500582e-01,-6.508291513842224818e-01,-2.407532170703648777e+00,4.275128817270323900e+00,-4.805036120897841379e+00,1.559727499996751643e+00,2.078649116637121352e+01,-4.765089652211377924e+00,1.587396212734413226e+00,2.086557483065428542e+01,-2.686447721049191936e-03,-2.908977123698642132e-03,3.379837764879452104e-04,1.103917350711443443e-03,2.044414261162237709e-05,-8.788548620063613495e-03,5.345446746525834973e-05,5.849658342626946212e-07,6.884887477198481979e-06,-1.828624435329192499e-01,1.700240544519702190e-01,2.229391933309344154e+00,9.463001886433103360e-01,9.998262491513818517e-01,8.771242994070617138e-01,9.481381830849174852e-01,9.467787898114281564e-01,-2.748413476516109455e-03,-5.594758173692992997e-02,4.378912253545746980e-02
5.299999999997453415e-01,8.500000000000000000e+01,3.494715252816497086e-01,-1.433481896951613210e+00,9.827716372271929401e+01,nan,nan,nan,9.383956115829853450e-01,9.968040136530459394e-01,9.025979312611454031e-01,9.536888928055501369e-01,-9.952397695089867935e-02,-3.180757739864774059e-01,7.493598755610190176e-01,-4.305692969092810851e-01,-2.288734594192260552e+00,4.516141005125233754e+00,-4.279589917718546133e+00,1.546955695600781278e+00,2.031751043437660442e+01,-4.240370913276341192e+00,1.577457517340634441e+00,2.040010284261128959e+01,-2.792780275545589733e-03,-3.209225929331571345e-03,4.081990932978735902e-04,1.236080562509393960e-03,2.492987258568900194e-05,-9.234142508387591444e-03,5.546977709580654733e-05,6.396145254682731100e-07,7.638544428483688445e-06,-1.628838270018356793e-01,1.697566139761151893e-01,2.180190004818740590e+00,9.457903986366400506e-01,9.996313360721497121e-01,8.787671707275261923e-01,9.484961650900154417e-01,9.478716123256816228e-01,-3.658720262827930281e-03,-5.474968180723266409e-02,3.945640058466787226e-02
5.399999999999636202e-01,8.500000000000000000e+01,2.604372134384765336e-01,-1.584409505646487748e+00,9.872838133947649908e+01,nan,nan,nan,9.374658696934522473e-01,9.955866786201011953e-01,9.069112181091905089e-01,9.558939729373945315e-01,-1.162000269918478240e-01,-3.690339226768485359e-01,7.841689325085466900e-01,-3.689040578808006621e-01,-2.032286294819428907e+00,4.325919601301372985e+00,-3.751266683615445352e+00,1.530665485994480379e+00,1.978040188774854613e+01,-3.715002313395015410e+00,1.563827009899085407e+00,1.986657159856104116e+01,-2.887891961085598327e-03,-3.491905215171673457e-03,4.493859949466066104e-04,1.442511966533825034e-03,2.991380071260126786e-05,-9.658460527528967346e-03,5.724791528999165560e-05,7.260476498605067679e-07,8.824814688927958164e-06,-1.428958216065348008e-01,1.694668357339944031e-01,2.123967419774153598e+00,9.452535246669022673e-01,9.993704839185527655e-01,8.805822651965826697e-01,9.489732720222496809e-01,9.489644348400345653e-01,-4.569027049222462722e-03,-5.355178187742648532e-02,3.512367863348420105e-02
5.500000000001818989e-01,8.500000000000000000e+01,1.702192255912510777e-01,-1.734695887870129294e+00,9.918183418201492429e+01,nan,nan,nan,9.365361278039191495e-01,9.943693435871565622e-01,9.112245049572357258e-01,9.580990530692389262e-01,-1.324205792753427868e-01,-4.154073388414569190e-01,8.190711548364766337e-01,-9.542283140211935133e-02,-1.512541558542450204e+00,4.096570171919359460e+00,-3.222500915777511743e+00,1.513820488905973649e+00,1.918096826697040669e+01,-3.189073800178348073e+00,1.549468358159329817e+00,1.927075012610875149e+01,-2.981517024580370660e-03,-3.756086219575237393e-03,4.872033096132247785e-04,1.643006444148043020e-03,3.450504741371370480e-05,-1.008306056806293136e-02,5.898328688371994651e-05,8.011621074388941735e-07,9.942249324313606388e-06,-1.228859805971312946e-01,1.691558664955728486e-01,2.061153735903317852e+00,9.446913134605325890e-01,9.990479453003010546e-01,8.825584756241312556e-01,9.495618211559113675e-01,9.500572573543876187e-01,-5.479333835617106185e-03,-5.235388194762030656e-02,3.079095668230041882e-02
5.600000000004001777e-01,8.500000000000000000e+01,6.844313448041201842e-02,-1.969671179241913039e+00,9.970412874247942625e+01,nan,nan,nan,9.356063859143861627e-01,9.931520085542119292e-01,9.155377918052808317e-01,9.603041332010833209e-01,-1.483533235763035418e-01,-4.588838744021436766e-01,8.540322440627321487e-01,5.091997184820030720e-01,-9.140569315985757060e-01,3.910503609493819255e+00,-2.692842081248665753e+00,1.496358883906107051e+00,1.852293686030719755e+01,-2.662209068018059011e+00,1.534329527591140385e+00,1.861636268411986705e+01,-3.072863211365272403e-03,-4.002950265290330413e-03,5.215005143189376359e-04,1.839627894730635430e-03,3.886301753413240044e-05,-1.050748022101955122e-02,6.066102149630374769e-05,8.654633613802880261e-07,1.100240815994688495e-05,-1.028421938963828275e-01,1.688247796720803162e-01,1.992149271722649218e+00,9.441053990923122807e-01,9.986676985634829196e-01,8.846854111562492129e-01,9.502546252474356470e-01,9.511500798687405611e-01,-6.389640622011638627e-03,-5.115598201781412779e-02,2.645823473111685864e-02
5.699999999997089617e-01,8.500000000000000000e+01,-3.970667641918899926e-02,-2.236417525889977220e+00,1.002556863441650989e+02,nan,nan,nan,9.346766440249376640e-01,9.919346735213779853e-01,9.198510786529336958e-01,9.625092133327270982e-01,-1.841338001120254586e-01,-4.890309801182334826e-01,8.853304089470788174e-01,1.377458876678165689e+00,-4.844641161301241339e-01,3.733649701540716404e+00,-2.155896308824855723e+00,1.466938025575593940e+00,1.780462125569959753e+01,-2.134814368479596158e+00,1.507140923470069005e+00,1.790197706911632380e+01,-3.150935684055670288e-03,-4.239269149797158555e-03,4.779142539937658715e-04,2.281892922403117637e-03,4.202246493689803478e-05,-1.088597066554728918e-02,6.206562380466837121e-05,1.031259784763179857e-06,1.347824160357006526e-05,-8.275275256179548400e-02,1.684745803475177772e-01,1.917327249596734617e+00,9.434973102506188924e-01,9.982334654786599870e-01,8.869533510764860962e-01,9.510449605802516748e-01,9.522429023829941386e-01,-7.299947408323459452e-03,-4.995808208811686191e-02,2.212551278032748314e-02
5.799999999999272404e-01,8.500000000000000000e+01,-1.504613673159715115e-01,-2.502221703967373312e+00,1.008112202821749008e+02,nan,nan,nan,9.337469021354045662e-01,9.907173384884332412e-01,9.241643655009789127e-01,9.647142934645714929e-01,-2.326786578512967663e-01,-5.106057249424462707e-01,9.142728909778661261e-01,2.165962386602498402e+00,-2.766924975046333723e-01,3.796403582579616298e+00,-1.613549105431804520e+00,1.428665557192718039e+00,1.703070491657972596e+01,-1.606381250709589592e+00,1.470990609103763225e+00,1.713216101336239561e+01,-3.219209643260777763e-03,-4.463383696055285045e-03,3.854747901739868053e-04,2.881569714017125430e-03,4.442119144781177351e-05,-1.123463278547410030e-02,6.326789358123670402e-05,1.245250432693364590e-06,1.679686745065368957e-05,-6.260639652723154480e-02,1.681062099239552798e-01,1.837035764226868650e+00,9.428684770340964860e-01,9.977487277881751382e-01,8.893532015867535723e-01,9.519265370705679574e-01,9.533357248973470810e-01,-8.210254194718047405e-03,-4.876018215831062763e-02,1.779279082914358989e-02
5.900000000001455192e-01,8.500000000000000000e+01,-2.638297668316024192e-01,-2.767088893192901633e+00,1.013707040884716406e+02,nan,nan,nan,9.328171602458714684e-01,9.895000034554886081e-01,9.284776523490240185e-01,9.669193735964157765e-01,-1.559607729852751645e-01,-4.901374881087014468e-01,1.008987559005227075e+00,2.629200253735684445e+00,-7.572796270714282629e-02,3.835326749514550659e+00,-1.116642416966255880e+00,1.459591173605962799e+00,1.624924511795867232e+01,-1.076565388208369889e+00,1.503628688178441530e+00,1.635819117548149393e+01,-3.533470256100462812e-03,-4.639931155913132148e-03,7.471889010929773367e-04,1.930110498947419043e-03,4.268037347998098922e-05,-1.239034049100865703e-02,6.928625960812778782e-05,7.936211592548888410e-07,1.109520329297852016e-05,-4.239234838816474671e-02,1.677205504148270021e-01,1.751599592647409054e+00,9.422202373100215800e-01,9.972167426863172146e-01,8.918764553753943947e-01,9.528934703010478735e-01,9.544285474117000234e-01,-9.120560981112690868e-03,-4.756228222850444887e-02,1.346006887796014073e-02
6.000000000003637979e-01,8.500000000000000000e+01,-3.798209757526591623e-01,-3.031024157737619351e+00,1.019341079318929815e+02,nan,nan,nan,9.318874183563383706e-01,9.882826684225439751e-01,9.327909391970691244e-01,9.691244537282601712e-01,-5.635336271040905509e-02,-4.619866484761676051e-01,1.115720917436866522e+00,2.958903799593239903e+00,2.636013324119290679e-01,3.619367485746293411e+00,-6.263586504060375537e-01,1.512261824421570644e+00,1.542720312811420058e+01,-5.451381000984368841e-01,1.561778383156664285e+00,1.554385432498403574e+01,-3.881804465885421371e-03,-5.208910304909521866e-03,1.232769299149033765e-03,6.968923655212787803e-04,4.030155892136870672e-05,-1.369144332787121214e-02,7.594176137944832268e-05,2.711772326391542683e-07,3.947988978151103666e-06,-2.210033559631552347e-02,1.673184284168965363e-01,1.661321860135355877e+00,9.415538426625761348e-01,9.966405573010951313e-01,8.945151537929293406e-01,9.539402553581706190e-01,9.555213699260529658e-01,-1.003086776750727882e-02,-4.636438229869832561e-02,9.127346926776580549e-03
6.099999999996725819e-01,8.500000000000000000e+01,-4.070704413918271869e-01,-3.255026832190599073e+00,1.025419331644584560e+02,nan,nan,nan,9.293737471598187971e-01,9.811546399632535831e-01,9.362459369189468639e-01,9.707418838591813648e-01,-9.214182794887431499e-03,-4.354034960064114279e-01,1.128327628290191287e+00,3.298399062204485865e+00,7.226554918902030611e-01,3.515246005398358520e+00,-2.220268608317663150e-01,1.531433596504088168e+00,1.448512814066023680e+01,-1.257240705701554995e-01,1.590759600731962653e+00,1.459994795037290594e+01,-3.875845961934526983e-03,-6.230578315041147321e-03,1.577964308711227214e-03,1.138756026652529106e-04,3.832910414671886917e-05,-1.383778909956438763e-02,7.568016114938006162e-05,4.150729719994658182e-08,6.340385922940174241e-07,-5.988113251616189459e-03,1.667491081357256877e-01,1.559086318976476093e+00,9.407683115810004937e-01,9.956418238024264955e-01,8.972064978137178626e-01,9.550238430365795006e-01,9.543790519753001522e-01,-8.642472931600142516e-03,-4.313841987183464344e-02,1.770283172472131294e-03
6.199999999998908606e-01,8.500000000000000000e+01,-3.949203721952821433e-01,-3.461347258488757905e+00,1.031722474675481322e+02,nan,nan,nan,9.265996534920337702e-01,9.730548021045072327e-01,9.395598186367813964e-01,9.722626952430556413e-01,1.581152121960624490e-02,-4.094810674049130239e-01,1.101263335583834602e+00,3.581989359069395640e+00,1.238210766516550265e+00,3.609893603761409775e+00,7.246566740900800552e-02,1.532620325154115948e+00,1.342360972967712840e+01,1.728293925777250328e-01,1.601819331497461141e+00,1.353283693577713720e+01,-3.718930128421918131e-03,-7.259065958898832174e-03,1.838386338157461898e-03,-1.953135087791818894e-04,3.642019893493201113e-05,-1.349939512567388360e-02,7.250846700301017398e-05,-6.586097493698032379e-08,-1.065538049820428768e-06,5.536466525961403207e-03,1.659987983626841079e-01,1.444458865705303907e+00,9.398545321027869104e-01,9.941851186739714130e-01,8.999379911675203791e-01,9.561356285899694774e-01,9.528692423690945379e-01,-6.876136003099608818e-03,-3.957901260937385368e-02,-6.084029141648072958e-03
6.300000000001091394e-01,8.500000000000000000e+01,-3.850874470250448267e-01,-3.668016410016137652e+00,1.038064950002832063e+02,nan,nan,nan,9.238255598242486322e-01,9.649549642457609933e-01,9.428737003546160400e-01,9.737835066269299178e-01,6.753680179318394261e-02,-3.631825267771043864e-01,1.099959280418488339e+00,4.003201509783989920e+00,1.678988970843403594e+00,3.719762562619472579e+00,2.442340423158521068e-01,1.551923319662088741e+00,1.225615808469046009e+01,3.594079681576370922e-01,1.630335876225205816e+00,1.236207852489490300e+01,-3.645699838791728858e-03,-8.216591812470619080e-03,2.174047232467402231e-03,-8.339457848424783326e-04,3.246355834596367226e-05,-1.347861739603936973e-02,7.100374777359022484e-05,-2.563699244590549595e-07,-4.444232803829818944e-06,1.280148984621365393e-02,1.650798181242562612e-01,1.318264909052512479e+00,9.388207753536993438e-01,9.922999778869047161e-01,9.027070445028019252e-01,9.572737934523674053e-01,9.513594327628889236e-01,-5.109799074599241653e-03,-3.601960534691311944e-02,-1.393834145576811068e-02
6.400000000003274181e-01,8.500000000000000000e+01,-3.775728371704372699e-01,-3.875037211832827122e+00,1.044446218529395196e+02,nan,nan,nan,9.210514661564636052e-01,9.568551263870146428e-01,9.461875820724505726e-01,9.753043180108041943e-01,1.388356020929188417e-01,-3.019462125180627510e-01,1.117540113428939996e+00,4.788036572465209417e+00,1.947144814690473735e+00,3.790695519030915950e+00,3.045752781554695865e-01,1.586061508172254664e+00,1.098551842708471504e+01,4.422329344399446027e-01,1.673092111456984110e+00,1.108990387921407361e+01,-3.625934206510206866e-03,-9.110439275160447936e-03,2.554536731035034636e-03,-1.713910970236970756e-03,2.700969945003302354e-05,-1.369076765858770299e-02,7.056826712578566287e-05,-4.718115872619243725e-07,-8.894400708677808838e-06,1.612035793136656903e-02,1.640039186470919896e-01,1.181286535960083484e+00,9.376747790296642293e-01,9.900140325485702331e-01,9.055112354631145166e-01,9.584366363426024549e-01,9.498496231566831982e-01,-3.343462146098707954e-03,-3.246019808445232968e-02,-2.179265376988831493e-02
6.499999999996362021e-01,8.500000000000000000e+01,-3.426696500342640839e-01,-4.069689200437081489e+00,1.051012058745473610e+02,nan,nan,nan,9.182773724889309319e-01,9.487552885290050364e-01,9.495014637899837906e-01,9.768251293945402480e-01,2.086016218880711037e-01,-2.691240915895419250e-01,1.167690918282472623e+00,5.660078282859401178e+00,2.175493888300725320e+00,3.793137758908478929e+00,2.703880492682776415e-01,1.624316646526287267e+00,9.614821217137260234e+00,4.321987501424520706e-01,1.719413748835408207e+00,9.721688700062911082e+00,-3.690808968510905438e-03,-9.949354730699159696e-03,2.906105575903107294e-03,-2.574804434645446352e-03,2.412527381788075360e-05,-1.430326448970954505e-02,7.180324497701408759e-05,-6.203820268728194272e-07,-1.297024141519314884e-05,1.579174586742393416e-02,1.627822856435059973e-01,1.034263800992128779e+00,9.364237817992848711e-01,9.873531317529398166e-01,9.083482979170618421e-01,9.596225657002470655e-01,9.483398135506150295e-01,-1.577125217758823528e-03,-2.890079082231528096e-02,-2.964696608329403515e-02
6.599999999998544808e-01,8.500000000000000000e+01,-1.619032116821496614e-01,-4.202743829036997170e+00,1.058352613503566459e+02,nan,nan,nan,9.155032788211459049e-01,9.406554506702586860e-01,9.528153455078183232e-01,9.783459407784145245e-01,2.764104848057648001e-01,-2.725831173275460317e-01,1.259429246390117108e+00,5.939649752322090137e+00,2.354303026934513099e+00,3.498667169690454770e+00,1.495816977689492511e-01,1.672368605387914542e+00,8.154617160640629692e+00,3.375613806746777801e-01,1.775011826106872359e+00,8.269035615243380377e+00,-3.858905005981825426e-03,-1.073733789408899339e-02,3.226837895255004873e-03,-3.411671608033055997e-03,2.455259774305916965e-05,-1.542655021601170920e-02,7.506690283569824034e-05,-6.977762141987946320e-07,-1.662616703666714815e-05,1.209969900157292777e-02,1.614255461245686363e-01,8.778961376302554243e-01,9.350745554875696808e-01,9.843414575078857087e-01,9.112161118829322781e-01,9.608300926094219818e-01,9.468300039444093041e-01,1.892117107417101707e-04,-2.534138355985449120e-02,-3.750127839741412838e-02
6.700000000000727596e-01,8.500000000000000000e+01,1.709044762430376313e-02,-4.338511091820246968e+00,1.065744582782495371e+02,nan,nan,nan,9.127291851533607669e-01,9.325556128115124466e-01,9.561292272256528557e-01,9.798667521622888010e-01,3.266713708587438147e-01,-2.622649031090620309e-01,1.275361152806494092e+00,5.410469086405617745e+00,2.432294192725629411e+00,2.965510402761202258e+00,-4.227625226800548613e-02,1.696004305933091594e+00,6.615546185367630727e+00,1.597324781493505708e-01,1.805767614904553842e+00,6.729547652177865658e+00,-3.773615644313545354e-03,-1.147966376019522901e-02,3.469981383244151712e-03,-4.032320237144305757e-03,2.368472784525588664e-05,-1.562285478937361360e-02,7.342054260594429158e-05,-6.699739564860156602e-07,-1.894373205887178878e-05,5.313840512461198706e-03,1.599437788403043348e-01,7.128438569020225657e-01,9.336334351841314438e-01,9.810016322507322251e-01,9.141126941030069952e-01,9.620578241789130569e-01,9.453201943382036898e-01,1.955548639242132847e-03,-2.178197629739381247e-02,-4.535559071153422162e-02
6.800000000002910383e-01,8.500000000000000000e+01,1.943169268956720375e-01,-4.476993192160590773e+00,1.073186791032018874e+02,nan,nan,nan,9.099550914855757400e-01,9.244557749527660961e-01,9.594431089434874993e-01,9.813875635461631886e-01,3.726299326128961198e-01,-2.485688548136051612e-01,1.272707223797862941e+00,4.630358895870712921e+00,2.537271640609122247e+00,2.762081340765457860e+00,-3.058038020109982158e-01,1.711818056688336975e+00,5.000677135817581664e+00,-9.282825409906987624e-02,1.828277793021031661e+00,5.112459675987016006e+00,-3.622403633676052337e-03,-1.217745225353789561e-02,3.678890297479769748e-03,-4.600407315738272267e-03,2.243663613327993606e-05,-1.559303858184629167e-02,7.050640481884359997e-05,-5.793171246930702816e-07,-2.075638181093385456e-05,-4.310332373959835373e-03,1.583465275817957929e-01,5.397297043911493120e-01,9.321063474095540036e-01,9.773548194296144409e-01,9.170361892258370728e-01,9.633044573492600682e-01,9.438103847319981865e-01,3.721885567742666545e-03,-1.822256903493302271e-02,-5.320990302565442587e-02
6.899999999995998223e-01,8.500000000000000000e+01,3.697818379553270973e-01,-4.618192457517996452e+00,1.080677979678604430e+02,nan,nan,nan,9.071809978180430667e-01,9.163559370947564897e-01,9.627569906610207173e-01,9.829083749298991313e-01,4.011657821057033058e-01,-2.217441942826599288e-01,1.315395385891210411e+00,4.109210826161990404e+00,2.592348531213360285e+00,3.006918986349920608e+00,-6.349551747625173936e-01,1.725310210059114002e+00,3.303292279426893963e+00,-4.136327786648941740e-01,1.847023793633963296e+00,3.418786589589895009e+00,-3.587643635897467664e-03,-1.272340240907977177e-02,3.810557569300061093e-03,-4.954032559692036347e-03,1.984813164136643119e-05,-1.612038515968910665e-02,6.986995671770515810e-05,-4.159233810750517419e-07,-2.137886807951402398e-05,-1.653108263033686853e-02,1.566428166974651315e-01,3.591404515480753901e-01,9.304988364652564403e-01,9.734208175981379219e-01,9.199848615571627475e-01,9.645687730992271725e-01,9.423005751259297957e-01,5.488222496082495461e-03,-1.466316177279591848e-02,-6.106421533906020160e-02
6.999999999998181011e-01,8.500000000000000000e+01,5.434908006400925862e-01,-4.762111344462962137e+00,1.088216807016558789e+02,nan,nan,nan,9.042594791708237212e-01,9.090433037328824462e-01,9.658345874129546926e-01,9.843578841701903226e-01,4.248104193479249613e-01,-1.912338372806804410e-01,1.370812782582236045e+00,3.736047120737354454e+00,2.467279365334747343e+00,3.278445032022872407e+00,-1.006945853344452191e+00,1.752560041362717369e+00,1.546284892443447356e+00,-7.784331956047390033e-01,1.865906085071760812e+00,1.668209337901193079e+00,-3.568692752918927770e-03,-1.184722496517118077e-02,3.809372311605520138e-03,-5.247892078152459859e-03,1.683763259795944685e-05,-1.680553489729178993e-02,6.954886166788826478e-05,-2.129945871168871253e-07,-2.158267944276765730e-05,-3.042427973120009899e-02,1.548710654201707060e-01,1.727432996916533625e-01,9.288065812025058099e-01,9.692689176327987655e-01,9.229418486130764876e-01,9.658450325357377242e-01,9.408738136217127401e-01,6.869736097588452495e-03,-1.165356065964717747e-02,-6.844484433971947945e-02
7.100000000000363798e-01,8.500000000000000000e+01,7.958311265720016126e-01,-4.853544209881491156e+00,1.096225472135112966e+02,nan,nan,nan,8.996379546830930440e-01,9.108081838798788299e-01,9.661875046458725524e-01,9.849851849828626937e-01,4.953761307356258081e-01,-1.793606847098990764e-01,1.418219385102814645e+00,3.281628472169952460e+00,2.215569746349579816e+00,3.383185252995809300e+00,-1.223681184816625356e+00,1.837246923974239499e+00,-1.302562752456321304e-01,-9.729516403075194608e-01,1.930513120822821893e+00,-3.026845059487523210e-03,-3.544599373083165764e-03,-9.750481740093120547e-03,3.833424461795568138e-03,-6.121981800884020858e-03,1.572726683254583240e-05,-1.739343350331248525e-02,6.912444615914635493e-05,7.120435217974289768e-09,-2.414388345773643311e-05,-3.785148015784189912e-02,1.533807596858173250e-01,-6.196030577569899833e-03,9.269254085357820916e-01,9.654986086558090541e-01,9.257308913549170404e-01,9.670794386740072524e-01,9.404047070479268911e-01,3.813725570102177720e-03,-1.498395476688796357e-02,-7.036327553288163061e-02
7.200000000002546585e-01,8.500000000000000000e+01,1.094621489928710556e+00,-4.916946082185903677e+00,1.104550061207838780e+02,nan,nan,nan,8.950164301953622559e-01,9.125730640268752136e-01,9.665404218787905233e-01,9.856124857955351759e-01,6.085477173156079722e-01,-1.844107254033359455e-01,1.458351923616271195e+00,2.785674124358270998e+00,2.086613701319688818e+00,3.294432670019044274e+00,-1.296742277165809254e+00,1.965575270838159749e+00,-1.730048122537740873e+00,-1.009967474056675973e+00,2.040087626131461551e+00,-1.599315394047833516e+00,-3.522265605201527032e-03,-7.793975287768477311e-03,3.963444028576448494e-03,-7.523672193444558461e-03,1.636645247417409417e-05,-1.789299727633059459e-02,6.873617346777448768e-05,3.114011352403308654e-07,-2.864316566881966279e-05,-3.930322607228564635e-02,1.521520562277431377e-01,-1.781749060449371314e-01,9.248675023180475963e-01,9.620852807138454699e-01,9.283628210178458406e-01,9.682746907594257380e-01,9.399356004741408199e-01,7.577150426158474339e-04,-1.831434887412880519e-02,-7.228170672604411484e-02
7.299999999995634425e-01,8.500000000000000000e+01,1.392568611881932705e+00,-4.985345270321685618e+00,1.112943072515946028e+02,nan,nan,nan,8.903949057080519092e-01,9.143379441737109481e-01,9.668933391116762976e-01,9.862397866081504816e-01,6.726633095788899785e-01,-1.625778131671262172e-01,1.479192703981217605e+00,2.405716432346715283e+00,2.081498473552897188e+00,2.943131665043059009e+00,-1.211740839772700085e+00,2.044177324909261184e+00,-3.284015456559012058e+00,-9.053759916381823869e-01,2.101201005835154678e+00,-3.150938505500460174e+00,-3.474982053269348291e-03,-5.967217938353650344e-03,3.978919729742041132e-03,-8.319957391115137893e-03,1.465025618853040869e-05,-1.815661682891395873e-02,6.786763619664720867e-05,6.671469376942077108e-07,-3.078950116814512357e-05,-3.523157485219646778e-02,1.511665572777982636e-01,-3.436508681969030476e-01,9.226442606288800530e-01,9.590059110236621720e-01,9.308477702980106905e-01,9.694333139549059508e-01,9.394664939003973814e-01,-2.298295484592427496e-03,-2.164474298106661143e-02,-7.420013791903201650e-02
7.399999999997817213e-01,8.500000000000000000e+01,1.689687888833137253e+00,-5.058743423260922967e+00,1.121402175007795705e+02,nan,nan,nan,8.857733812203212320e-01,9.161028243207073318e-01,9.672462563445941575e-01,9.868670874208229638e-01,7.205921852811648654e-01,-1.318744918036676150e-01,1.493667896909012249e+00,2.223313966855902990e+00,1.964011908601657863e+00,2.700849859247017370e+00,-9.892561960128282150e-01,2.106598480684669816e+00,-4.787641429631446677e+00,-6.683205433744268120e-01,2.147291855554712026e+00,-4.652702409025040176e+00,-3.435151561727408515e-03,-4.260712663992777260e-03,3.967678729643099936e-03,-8.916818566178600497e-03,1.225422913873255301e-05,-1.834267136388527050e-02,6.715525043143686236e-05,1.049012372626294913e-06,-3.230518027990836874e-05,-2.605342376333197318e-02,1.504071965459348181e-01,-5.030452858347906897e-01,9.202663464512863545e-01,9.562389616107387358e-01,9.331952184034394415e-01,9.705576705679986871e-01,9.389973873266115323e-01,-5.354306012078646759e-03,-2.497513708830745305e-02,-7.611856911219422317e-02
7.500000000000000000e-01,8.500000000000000000e+01,1.985994821852766989e+00,-5.137142350855494755e+00,1.129924885768429874e+02,nan,nan,nan,8.811518567325904439e-01,9.178677044677037156e-01,9.675991735775120173e-01,9.874943882334953349e-01,6.902344049448362329e-01,-9.056138696351259676e-02,1.520693700361442025e+00,1.903784521526237450e+00,1.994935287754485920e+00,2.759707167655911064e+00,-6.203686433755282170e-01,2.099136216638586738e+00,-6.252152106036779067e+00,-3.088960124316477707e-01,2.124517428780906769e+00,-6.112403801109536516e+00,-3.444817003648255934e-03,-2.659514423395735981e-03,3.793165357925707120e-03,-8.545197069205793042e-03,9.011758388133717795e-06,-1.868341946331116346e-02,6.742591822256685519e-05,1.314684124384396781e-06,-3.052595595908371952e-05,-1.215351581333184994e-02,1.498581351559687691e-01,-6.567466292450596654e-01,9.177437350803778759e-01,9.537642835494573035e-01,9.354140331994523772e-01,9.716499705539148879e-01,9.385282807528253501e-01,-8.410316539564977045e-03,-2.830553119554829467e-02,-7.803700030535659637e-02
7.600000000002182787e-01,8.500000000000000000e+01,2.260625249781833546e+00,-5.204506955815189073e+00,1.138810556835614989e+02,nan,nan,nan,8.765303322448597667e-01,9.196325846147000993e-01,9.679520908104299881e-01,9.881216890461678171e-01,6.333057183110812893e-01,-4.564726533632977590e-02,1.551979247595253186e+00,1.299858212410380576e+00,2.344063131242593023e+00,2.712045383935398846e+00,-1.300378068490341821e-01,2.066304100934367671e+00,-7.668248579102270313e+00,1.641242632426047621e-01,2.077324906003270577e+00,-7.522810641634792184e+00,-3.484018007778501552e-03,-1.157379802642179763e-03,3.576707446178030436e-03,-7.844249691584027212e-03,5.591170748834532559e-06,-1.907713836830455742e-02,6.829534869921740498e-05,1.481697595591229418e-06,-2.782524282388576693e-05,6.112839674687897684e-03,1.495046665702225996e-01,-8.051134086581086535e-01,9.150857584744087614e-01,9.515630273791616522e-01,9.375125106359991634e-01,9.727122813411908098e-01,9.380591741790393900e-01,-1.146632706705125182e-02,-3.163592530278908077e-02,-7.995543149851896958e-02
7.700000000004365575e-01,8.500000000000000000e+01,2.520735314539085614e+00,-5.266224006347006714e+00,1.147971708512902893e+02,nan,nan,nan,8.719088077571290896e-01,9.213974647616963720e-01,9.683050080433478479e-01,9.887489898588402992e-01,6.060548679622348445e-01,-2.153273871098648068e-02,1.579687412183748974e+00,9.427028680038586073e-01,2.659665792063945933e+00,2.432407092195473020e+00,4.576903157574744307e-01,2.061363336293952742e+00,-9.025342302271432970e+00,7.445166268548023547e-01,2.058948459675714826e+00,-8.875372652099743576e+00,-3.538146951297202730e-03,2.460948587844933124e-04,3.442067727764253418e-03,-7.510508807482184357e-03,4.286511839459665108e-06,-1.942753561699343129e-02,6.948250441472514089e-05,1.673656396794623388e-06,-2.663449193071967293e-05,2.841730200317316157e-02,1.493331296385614904e-01,-9.484768146467672523e-01,9.123011467455101053e-01,9.496175592977438296e-01,9.394984116322051548e-01,9.737465370236630946e-01,9.375900676052534299e-01,-1.452233759453741557e-02,-3.496631941002986688e-02,-8.187386269168128727e-02
7.799999999997453415e-01,8.500000000000000000e+01,2.780172051011286172e+00,-5.332896385123729210e+00,1.157209893675475456e+02,nan,nan,nan,8.672872832698186318e-01,9.231623449085322175e-01,9.686579252762336223e-01,9.893762906714556049e-01,5.981075912717618293e-01,-1.094704587060667603e-02,1.605068713425435778e+00,9.576789171859479977e-01,2.858927085040642080e+00,2.076682626354550365e+00,1.137556088694769540e+00,2.075626517225370726e+00,-1.033187248050283991e+01,1.423745566622890868e+00,2.060649933953591972e+00,-1.017814914405932392e+01,-3.609963416226962506e-03,1.556884674163448723e-03,3.363527291140343441e-03,-7.415878861420067969e-03,4.413475725917326625e-06,-1.974994548180376841e-02,7.104580263743963398e-05,1.896869159307915149e-06,-2.646133988937391548e-05,5.445626312798040880e-02,1.493308289987256288e-01,-1.087143093663023308e+00,9.093980669745875822e-01,9.479113827601486353e-01,9.413789965821202088e-01,9.747545469596223811e-01,9.371209610315101024e-01,-1.757834812174585704e-02,-3.829671351696778414e-02,-8.379229388466918893e-02
7.899999999999636202e-01,8.500000000000000000e+01,3.038947260022499819e+00,-5.404525788106982809e+00,1.166521930704131478e+02,nan,nan,nan,8.626657587820879547e-01,9.249272250555286012e-01,9.690108425091514821e-01,9.900035914841280871e-01,5.927533542653266041e-01,1.048923048031353764e-02,1.627386256320735303e+00,4.871183808286793093e-01,3.097471268892725504e+00,1.762329554182959779e+00,1.905361086574832497e+00,2.091892989711195305e+00,-1.160043091653831304e+01,2.192060598807719529e+00,2.065177604719380611e+00,-1.144346394735343608e+01,-3.693776281860522946e-03,2.782656855227630573e-03,3.302565396542983707e-03,-7.353420302209196305e-03,3.670420154786545573e-06,-2.003520611464437370e-02,7.287695242824670106e-05,2.116256318564349369e-06,-2.655808093062861190e-05,8.394881729098419010e-02,1.494859621359159729e-01,-1.221395688000125546e+00,9.063841595228215864e-01,9.464290651332689652e-01,9.431610576350962782e-01,9.757380038163947500e-01,9.366518544577240313e-01,-2.063435864923202079e-02,-4.162710762420862576e-02,-8.571072507783150662e-02
8.000000000001818989e-01,8.500000000000000000e+01,3.296151590328788128e+00,-5.473637078445306337e+00,1.175915589959055296e+02,nan,nan,nan,8.580442342943572775e-01,9.266921052025249850e-01,9.693637597420694529e-01,9.906308922968004582e-01,5.903861070231445352e-01,4.442457580798845479e-02,1.646174576396390643e+00,-4.846664405121525188e-01,3.297477577480702138e+00,1.558595731414687879e+00,2.754051000761662760e+00,2.107415036817124943e+00,-1.283371636417362893e+01,3.042466544074746260e+00,2.072817867650215362e+00,-1.267438455904852113e+01,-3.786863369389823538e-03,3.606883708756557748e-03,3.292733531890253140e-03,-7.328067778494634817e-03,1.891315467042117964e-06,-2.027748909481678213e-02,7.492506485966434317e-05,2.337172295033458460e-06,-2.693429110405261314e-05,1.166349153671965566e-01,1.497875524812428694e-01,-1.351497166023587937e+00,9.032665720014917410e-01,9.451561690810251770e-01,9.448509488942933299e-01,9.766984910960839761e-01,9.361827478839379602e-01,-2.369036917671835107e-02,-4.495750173144935635e-02,-8.762915627099382432e-02
8.100000000004001777e-01,8.500000000000000000e+01,3.541517379199000004e+00,-5.450539385254189462e+00,1.185534555717765670e+02,nan,nan,nan,8.525515771325732350e-01,9.257997462115291620e-01,9.705498026049504956e-01,9.906865423757216238e-01,6.163409293747058593e-01,3.831775734079280460e-02,1.663885087789116701e+00,-1.178809182575039749e+00,3.305666230648596216e+00,1.523521966080054080e+00,3.665278234531480273e+00,2.149060909148225118e+00,-1.405667851667067048e+01,3.964973293306707003e+00,2.111286647748022993e+00,-1.389616163164656903e+01,-3.894110228584325619e-03,3.936020640679098459e-03,3.398777295081001695e-03,-7.654954976059805301e-03,4.021664576278790099e-06,-2.050830128890399062e-02,7.730042413313324549e-05,2.681892746912468199e-06,-2.869559906339873637e-05,1.519243109099213118e-01,1.501287908562664586e-01,-1.482117595152089962e+00,8.999958090782891329e-01,9.439078150111683829e-01,9.465083454513250061e-01,9.776006226966401647e-01,9.348969170811936014e-01,-2.655571465409234388e-02,-4.669245442486352760e-02,-9.144251081828486116e-02
8.199999999997089617e-01,8.500000000000000000e+01,3.787712313420746213e+00,-5.432539052770383847e+00,1.195241595587070549e+02,nan,nan,nan,8.467522096573109058e-01,9.239718206018858737e-01,9.720291741777582484e-01,9.905409244029886873e-01,6.537351163465735526e-01,1.603779480309661110e-02,1.681160269181599665e+00,-1.302398639020559745e+00,3.137800615838493457e+00,1.590055454963358317e+00,4.633965706345397173e+00,2.202447543214274273e+00,-1.529142540696745378e+01,4.948889543373946154e+00,2.162816719938987831e+00,-1.513013264408528435e+01,-4.009474915872637130e-03,4.125586626007936991e-03,3.545951631059144488e-03,-8.125110961348680841e-03,7.810891428570391004e-06,-2.073591447687697306e-02,7.989202630578895459e-05,3.107079140170215933e-06,-3.109641285736230613e-05,1.894987307467193016e-01,1.504723230319844340e-01,-1.614735405498844756e+00,8.965619688238615215e-01,9.426220826253209895e-01,9.481542606403843276e-01,9.784351817682831465e-01,9.333235322099858733e-01,-2.935393035967232001e-02,-4.786568058490270339e-02,-9.592303416077502254e-02
8.299999999999272404e-01,8.500000000000000000e+01,4.034746486588704606e+00,-5.419635621368383838e+00,1.205032889924909227e+02,nan,nan,nan,8.409528421815209986e-01,9.221438949920762740e-01,9.735085457507006712e-01,9.903953064302424281e-01,6.167015435829376058e-01,7.160903360058204492e-02,1.694820257719530598e+00,-8.787146499168942970e-01,2.957165675857843290e+00,1.297795320989802326e+00,5.674345095485514356e+00,2.172247657140721433e+00,-1.657340376576501484e+01,5.979752985684354982e+00,2.130794562864897657e+00,-1.641009948875966273e+01,-4.101659380038477805e-03,4.319166089845021331e-03,3.514647970288922209e-03,-7.670862370777281787e-03,4.355740851405727646e-06,-2.092047296944913454e-02,8.208049765874547135e-05,3.184022048248236416e-06,-3.000151438740739703e-05,2.291841554990315943e-01,1.508171999558202692e-01,-1.749170152333711314e+00,8.929755685869383841e-01,9.413013825637648324e-01,9.497894349295166183e-01,9.792065262671306725e-01,9.317501473386351485e-01,-3.215214606550675924e-02,-4.903890674504851610e-02,-1.004035575036729133e-01
8.400000000001455192e-01,8.500000000000000000e+01,4.282629934865457066e+00,-5.411828763154173494e+00,1.214904356197201025e+02,nan,nan,nan,8.351534747057312025e-01,9.203159693822667853e-01,9.749879173236430940e-01,9.902496884574962799e-01,5.470516348587759481e-01,1.612968566759308553e-01,1.706895967150162452e+00,-3.270363950720869828e-01,2.929942939080723896e+00,5.545647456374246387e-01,6.772782382330375661e+00,2.104199733200402544e+00,-1.787786355145087924e+01,7.057772457437423874e+00,2.060978146826740520e+00,-1.771193719818127121e+01,-4.182578023446242507e-03,4.510463943602141014e-03,3.398478066316074509e-03,-6.810411188064679003e-03,-2.223506468139631405e-06,-2.108701757990550860e-02,8.410362704672925537e-05,3.053448034367594330e-06,-2.724333476578069536e-05,2.708171286579125758e-01,1.511625291640562030e-01,-1.885252652419122654e+00,8.892464474207544267e-01,9.399479699973327662e-01,9.514145610317414903e-01,9.799187330915721805e-01,9.301767624672844237e-01,-3.495036177134114297e-02,-5.021213290519438432e-02,-1.048840808465706376e-01
8.500000000003637979e-01,8.500000000000000000e+01,4.531372635349542044e+00,-5.409118280384715760e+00,1.224851654334092501e+02,nan,nan,nan,8.293541072299414063e-01,9.184880437724571856e-01,9.764672888965854058e-01,9.901040704847500207e-01,5.617354269960097568e-01,2.236248493799127268e-01,1.709034328981926087e+00,-1.353617634339195352e-01,3.139312904159517359e+00,-1.210617304991708082e-01,7.894028880928347647e+00,2.126206733600620069e+00,-1.918910695152294110e+01,8.185605827950125146e+00,2.081517824737397326e+00,-1.902357771395214314e+01,-4.247078270984736871e-03,4.667269621886543061e-03,3.487858966649914558e-03,-6.999795819531130954e-03,-6.197814594112623596e-06,-2.113258108403884977e-02,8.585540264338613185e-05,3.375248088086807163e-06,-2.866110398045320704e-05,3.142442050595980474e-01,1.515074727601555260e-01,-2.022824379954244023e+00,8.853838098283368652e-01,9.385639546540914813e-01,9.530302869849276437e-01,9.805756162085284000e-01,9.286033775959334768e-01,-3.774857747717558221e-02,-5.138535906534019704e-02,-1.093646041894684728e-01
8.599999999996725819e-01,8.500000000000000000e+01,4.771039849957878332e+00,-5.342536937546834785e+00,1.234775435777227841e+02,nan,nan,nan,8.235547397546789661e-01,9.166601181628138972e-01,9.779466604693932696e-01,9.899584525120170841e-01,6.457547982433252676e-01,2.634587541417004464e-01,1.703002626609489756e+00,-4.636565032597687597e-01,3.553829473353564250e+00,-4.843565973137916592e-01,9.038635916770845213e+00,2.222333909059697632e+00,-2.051474856321928897e+01,9.359072498630164105e+00,2.176479694991282798e+00,-2.035219084216478080e+01,-4.298188465266317322e-03,4.789956810546247036e-03,3.756335955802821841e-03,-8.054916428626738775e-03,-8.040987336238331756e-06,-2.107867134831691025e-02,8.739350984895283281e-05,4.161063178788858624e-06,-3.378212455010356417e-05,3.593214156883337007e-01,1.518512452524499734e-01,-2.161736881360269535e+00,8.813962666865953199e-01,9.371513101993945716e-01,9.546372190330191243e-01,9.811807436106951830e-01,9.270299927247258598e-01,-4.054679318275555833e-02,-5.255858522537937283e-02,-1.138451275319586897e-01
8.699999999998908606e-01,8.500000000000000000e+01,5.004075872289053706e+00,-5.218232928354074041e+00,1.244698212392597441e+02,nan,nan,nan,8.177553722788891699e-01,9.148321925530044085e-01,9.794260320423355815e-01,9.898128345392708249e-01,6.043045640565123389e-01,3.020112164128821997e-01,1.702267548364484018e+00,-8.718128633015174156e-01,3.734183604435953097e+00,-6.041921654359134752e-01,1.026337604487411781e+01,2.180433351744789139e+00,-2.183532914869409680e+01,1.057218713503630525e+01,2.133142926694279851e+00,-2.167216654064495884e+01,-4.363958519579273082e-03,4.941462716472800124e-03,3.703363016684052024e-03,-7.546040303582863228e-03,-9.641703442797926150e-06,-2.109162758310803576e-02,8.928945801120539679e-05,4.161750605447412945e-06,-3.243610113704614506e-05,4.059137503545581227e-01,1.521931112984784840e-01,-2.301851210521508762e+00,8.772918735309579441e-01,9.357118830109447671e-01,9.562359243214774152e-01,9.817374531801601467e-01,9.254566078533749129e-01,-4.334500888858999756e-02,-5.373181138552524105e-02,-1.183256508748564140e-01
8.800000000001091394e-01,8.500000000000000000e+01,5.240019889312414136e+00,-5.098931831831457373e+00,1.254707580311812904e+02,nan,nan,nan,8.119560048030992627e-01,9.130042669431948088e-01,9.809054036152780043e-01,9.896672165665245657e-01,5.315065306843398396e-01,3.402435182608663511e-01,1.702855798657411102e+00,-1.169918618896283347e+00,3.662633777705215365e+00,-6.031262423019899677e-01,1.153454639826570549e+01,2.104038524762867457e+00,-2.315823608001410605e+01,1.182158714702574542e+01,2.055281926051220509e+00,-2.299348807335157474e+01,-4.434094820869271397e-03,5.096240077321178251e-03,3.561616835679917714e-03,-6.644625705258669530e-03,-1.112417189002663541e-05,-2.112230025007651515e-02,9.133900020623833397e-05,3.900118365112662751e-06,-2.928860162398736164e-05,4.538946593529428197e-01,1.525323833951275909e-01,-2.443037385604837297e+00,8.730781663711199014e-01,9.342474003879910338e-01,9.578269334188347361e-01,9.822488675289327009e-01,9.238832229820241881e-01,-4.614322459442443680e-02,-5.490503754567105377e-02,-1.228061742177541937e-01
8.900000000003274181e-01,8.500000000000000000e+01,5.478881951989695409e+00,-4.984630308983048153e+00,1.264798866712603740e+02,nan,nan,nan,8.061566373273094666e-01,9.111763413333853201e-01,9.823847751882203161e-01,9.895215985937784176e-01,5.081062094032030574e-01,3.570040459629187368e-01,1.727061392056834954e+00,-1.365590769854864162e+00,3.761775823748782166e+00,-8.722851200456096521e-01,1.282266738172508092e+01,2.090433052417280724e+00,-2.449301980110745092e+01,1.310592222528855011e+01,2.040424346888400464e+00,-2.432508419103673347e+01,-4.577647598748956458e-03,5.225912492577853598e-03,3.546364260423101253e-03,-6.359790563549908710e-03,-1.016816619594032578e-05,-2.144791284879573462e-02,9.497398694642035510e-05,3.961528632716137338e-06,-2.876050294319701346e-05,5.031455748477716705e-01,1.528684195468415774e-01,-2.585173868201788849e+00,8.687621951967903211e-01,9.327594782310458799e-01,9.594107426756589563e-01,9.827179078823589098e-01,9.223098381106733523e-01,-4.894144030025882053e-02,-5.607826370581697750e-02,-1.272866975606519735e-01
8.999999999996362021e-01,8.500000000000000000e+01,5.720671982005884004e+00,-4.875325264621659827e+00,1.274967118518602547e+02,nan,nan,nan,8.003572698520471373e-01,9.093484157237420318e-01,9.838641467610281799e-01,9.893759806210453700e-01,5.120007891166300507e-01,3.619002600214491494e-01,1.764316841702626704e+00,-1.059517704790977843e+00,3.777805307487501540e+00,-1.625290898006545248e+00,1.413193677845327656e+01,2.108931216681792176e+00,-2.583867339688558573e+01,1.442148766708310603e+01,2.060537535832258182e+00,-2.566658650773525352e+01,-4.766400846852631920e-03,5.054651371688896958e-03,3.594296150657923933e-03,-6.416704620820723459e-03,-7.745981360338886207e-06,-2.193804969282772688e-02,9.964049523081761875e-05,4.230738962835080132e-06,-2.978326595022098527e-05,5.535554524214965078e-01,1.532006209382173467e-01,-2.728147065191148357e+00,8.643505553226207283e-01,9.312496282263366121e-01,9.609878164313645499e-01,9.831473070671555847e-01,9.207364532394657353e-01,-5.173965600583885216e-02,-5.725148986585604227e-02,-1.317672209031422459e-01
9.099999999998544808e-01,8.500000000000000000e+01,5.942897261011681920e+00,-4.673356231406443406e+00,1.284297847059049502e+02,nan,nan,nan,7.969200178352257025e-01,9.051260163054017926e-01,9.838020902461968031e-01,9.896465984466662480e-01,5.479249391642191380e-01,3.890407904360614899e-01,1.697694702551009183e+00,-3.597178074406918169e-01,3.360318305341167378e+00,-2.299137732253733191e+00,1.531722652716887190e+01,2.123456989977056786e+00,-2.717995952462549170e+01,1.561570602828795451e+01,2.080648476384562962e+00,-2.701649461945514830e+01,-4.646968520753747868e-03,4.472602254633120146e-03,3.716671007233081272e-03,-6.876170722941079422e-03,-9.207799253611177365e-06,-2.113695311670022239e-02,9.790373051782823690e-05,4.784568254141691818e-06,-3.269450491894315209e-05,5.993204558152818162e-01,1.534588467602723272e-01,-2.870433065599247158e+00,8.600017566591200424e-01,9.295648377316915179e-01,9.624591777339973619e-01,9.835664659633782669e-01,9.188736807083726088e-01,-5.118074513485326715e-02,-5.702525333532276752e-02,-1.357013272761178335e-01
9.200000000000727596e-01,8.500000000000000000e+01,6.169181598735240080e+00,-4.475668122783734049e+00,1.293706951602395065e+02,nan,nan,nan,7.945282029545605029e-01,8.998438584271238883e-01,9.830578206077204007e-01,9.901014360399357228e-01,5.933247285874708732e-01,4.227620872408394126e-01,1.600341380919220402e+00,3.779437125978035023e-02,2.737788342471437986e+00,-2.502484774672334655e+00,1.632334944435510948e+01,2.131144057409231962e+00,-2.851130440584562109e+01,1.663109857778332668e+01,2.094843340240422513e+00,-2.836026961203673125e+01,-4.417382529502163549e-03,3.795708530346214495e-03,3.862132817595271325e-03,-7.456478469659741544e-03,-1.224638477659726158e-05,-1.995174049626668999e-02,9.380134611837731833e-05,5.459482042557599106e-06,-3.621897236519493153e-05,6.382262845752776359e-01,1.536176960774703892e-01,-3.011416605166285620e+00,8.557791697800187780e-01,9.276480421685271427e-01,9.637876463171807240e-01,9.839879258863436506e-01,9.168828295073351287e-01,-4.913602002017408710e-02,-5.617963545238935374e-02,-1.393935976329858661e-01
9.300000000002910383e-01,8.500000000000000000e+01,6.399587472249734788e+00,-4.282469641107998548e+00,1.303192410360366580e+02,nan,nan,nan,7.921363880738953034e-01,8.945617005488459839e-01,9.823135509692439982e-01,9.905562736332051976e-01,5.702292016163499344e-01,4.865519994254225988e-01,1.548096225540213089e+00,-2.579283145252013187e-01,2.287362524968490796e+00,-2.723292645830242886e+00,1.717852820984361983e+01,2.082134187524169455e+00,-2.983119593260231994e+01,1.747559191636883469e+01,2.051681595277847325e+00,-2.968551348798033374e+01,-4.285893478900044441e-03,3.190757259843327639e-03,3.808409243210005533e-03,-7.176887158389936433e-03,-1.775409609555433468e-05,-1.932724652014744179e-02,9.173908588456861893e-05,5.514903605574871704e-06,-3.552466065713158196e-05,6.707353672597183847e-01,1.536845781000984457e-01,-3.151152578680660454e+00,8.516746549068162642e-01,9.255142042432000782e-01,9.649824377632091332e-01,9.844115384358995691e-01,9.148919783062976485e-01,-4.709129490549468500e-02,-5.533401756945593997e-02,-1.430858679898538988e-01
9.399999999995998223e-01,8.500000000000000000e+01,6.634126459900024031e+00,-4.093755112141470143e+00,1.312749949296455156e+02,nan,nan,nan,7.897445731934475965e-01,8.892795426710484730e-01,9.815692813308353193e-01,9.910111112264333721e-01,4.815347929428078211e-01,5.791390271903533726e-01,1.539051765011820505e+00,-5.209635719148421051e-01,2.013142044060200142e+00,-3.241000262048210345e+00,1.789320465509317160e+01,1.983818230677010908e+00,-3.113113509215243369e+01,1.816047145250561101e+01,1.958549559569054077e+00,-3.098394349130190051e+01,-4.252250638611153495e-03,2.658048440621371515e-03,3.556917928371133159e-03,-6.069983554234859545e-03,-2.549074828441491822e-05,-1.924186276372416571e-02,9.176243903743531993e-05,4.883711829587497776e-06,-3.054813117317244840e-05,6.972817353547555719e-01,1.536664296061122925e-01,-3.289690106956401294e+00,8.476805972198828698e-01,9.231773216720530195e-01,9.660521733136943068e-01,9.848371647826643649e-01,9.129011271054411347e-01,-4.504656979100135628e-02,-5.448839968659946464e-02,-1.467781383463863110e-01
9.499999999998181011e-01,8.500000000000000000e+01,6.872810097954238806e+00,-3.909519244298729657e+00,1.322375068794062543e+02,nan,nan,nan,7.873527583127823970e-01,8.839973847927704576e-01,9.808250116923589168e-01,9.914659488197028470e-01,4.400608093552080269e-01,5.960298604287345148e-01,1.553251418074531376e+00,-7.258306120315589915e-02,1.850072936109280475e+00,-4.071589448060263905e+00,1.845129727451867652e+01,1.940151810815215150e+00,-3.241063705893787272e+01,1.870669451862615063e+01,1.919838349871403116e+00,-3.226040841693561134e+01,-4.313814449966690660e-03,2.141289321555459989e-03,3.438640188902607284e-03,-5.556124108577139425e-03,-2.572323024265283186e-05,-1.945002445553999787e-02,9.381104424560759839e-05,4.670573537349294205e-06,-2.837040084946070153e-05,7.182725912375964583e-01,1.535697423059247946e-01,-3.427073241570438356e+00,8.437898730022370675e-01,9.206504894164371233e-01,9.670049182003750410e-01,9.852646750507871864e-01,9.109102759044036546e-01,-4.300184467632206520e-02,-5.364278180366599535e-02,-1.504704087032544546e-01
9.600000000000363798e-01,8.500000000000000000e+01,7.090571800569132499e+00,-3.638534518484879410e+00,1.330880739280697185e+02,nan,nan,nan,7.849609434321173085e-01,8.787152269144925532e-01,9.800807420538825143e-01,9.919207864129724328e-01,4.156906413737573303e-01,5.855026060316111947e-01,1.575870373420378945e+00,5.767356261917130356e-01,1.867963149239712184e+00,-5.274713749463859180e+00,1.887014788602484572e+01,1.915189446914156601e+00,-3.367884059541643182e+01,1.912010713680022889e+01,1.899548691144057333e+00,-3.352499884196090818e+01,-4.407342677877616743e-03,1.651215424586405028e-03,3.367875973547568291e-03,-5.257189857597538776e-03,-2.330515472672269398e-05,-1.976621517757382734e-02,9.656120713038841537e-05,4.608380775930626664e-06,-2.718358679766963920e-05,7.340898134123399199e-01,1.534005889864513417e-01,-3.563341579205424381e+00,8.399958179668973735e-01,9.179459579041961970e-01,9.678482175038832791e-01,9.856939477404997874e-01,9.089194247033661744e-01,-4.095711956164271861e-02,-5.279716392073258158e-02,-1.541626790601225427e-01
9.700000000002546585e-01,8.500000000000000000e+01,7.312648808723293037e+00,-3.369278098788323739e+00,1.339427289612579841e+02,nan,nan,nan,7.825691285514521089e-01,8.734330690362146488e-01,9.793364724154061118e-01,9.923756240062419076e-01,4.447081733910628332e-01,5.973856932369128181e-01,1.507489447536654481e+00,1.015477579701923316e+00,1.890306319572593763e+00,-6.289375111557665043e+00,1.915421148012297792e+01,1.918303770041162704e+00,-3.495027719274843747e+01,1.940890201746774579e+01,1.907339981992718148e+00,-3.480497304085439225e+01,-4.208130156566920917e-03,1.164347862214108308e-03,3.455470053651604409e-03,-5.633861146499202950e-03,-2.513295741401913412e-05,-1.893999496624865220e-02,9.291519823626717808e-05,5.140824155038228750e-06,-2.944710688497602640e-05,7.450913979128768183e-01,1.531646484350595583e-01,-3.698530797267700621e+00,8.362921976268423707e-01,9.150751874961475796e-01,9.685891296998526689e-01,9.861248691879201944e-01,9.069285735023285833e-01,-3.891239444696331651e-02,-5.195154603779916780e-02,-1.578549494169906864e-01
9.799999999995634425e-01,8.500000000000000000e+01,7.539653090444781824e+00,-3.103871722514883746e+00,1.348039319072878470e+02,nan,nan,nan,7.801773136710044021e-01,8.681509111584171379e-01,9.785922027769973219e-01,9.928304615994700821e-01,5.078731751011549278e-01,6.236027274130161446e-01,1.380903809962512163e+00,1.255291410110692230e+00,1.720424464273440535e+00,-6.547931743809776606e+00,1.931589046144392441e+01,1.931135696820820202e+00,-3.622189633043161194e+01,1.958173606977692316e+01,1.924787287518104906e+00,-3.609295550441062517e+01,-3.815512877941891132e-03,6.863525493817652229e-04,3.645579430507875796e-03,-6.445493275728616210e-03,-2.984379342314369236e-05,-1.737845835936234484e-02,8.493485242395257457e-05,6.112458827196182322e-06,-3.399793586956251012e-05,7.516128355094091607e-01,1.528672291545274953e-01,-3.832673120943036693e+00,8.326731795759294563e-01,9.120488994399178484e-01,9.692342580415467257e-01,9.865573330596901780e-01,9.049377223014722915e-01,-3.686766933246998779e-02,-5.110592815494274799e-02,-1.615472197735229321e-01
9.899999999997817213e-01,8.500000000000000000e+01,7.771600622699722294e+00,-2.842306670583202965e+00,1.356713440817031824e+02,nan,nan,nan,7.777854987903392026e-01,8.628687532801392335e-01,9.778479331385209194e-01,9.932852991927395570e-01,5.479646611083510699e-01,6.173986544658468523e-01,1.331071095231060930e+00,1.185354195609150230e+00,1.388677974564687334e+00,-6.532822177184615775e+00,1.937010853146595579e+01,1.941955373205804802e+00,-3.747543134686423372e+01,1.964573386898295126e+01,1.939806417297210706e+00,-3.735317602981474749e+01,-3.665661559704534635e-03,2.474010869213315810e-04,3.765255036080323095e-03,-6.966978139631931424e-03,-2.995819446393760161e-05,-1.678129972802403988e-02,8.221870652531730031e-05,6.856409426727683681e-06,-3.702738628238748175e-05,7.539684249554354789e-01,1.525132918883704836e-01,-3.965797730557513390e+00,8.291333075574446321e-01,9.088771235374879520e-01,9.697897799185086765e-01,9.869912398802156428e-01,9.029468711004347004e-01,-3.482294421779069671e-02,-5.026031027200933421e-02,-1.652394901303910757e-01
1.000000000000000000e+00,8.500000000000000000e+01,8.008507577086932727e+00,-2.584574760421431971e+00,1.365446105517699209e+02,nan,nan,nan,7.753936839096740030e-01,8.575865954018612181e-01,9.771036635000445170e-01,9.937401367860091428e-01,5.721607121243686978e-01,5.888595543314280034e-01,1.334113768499327168e+00,9.828653343078964655e-01,8.695316982847438592e-01,-7.078710514705664814e+00,1.932390667061412870e+01,1.968621483996441990e+00,-3.871297294141094625e+01,1.960839439698412079e+01,1.958194521355846929e+00,-3.858987907237700909e+01,-3.684662291735967855e-03,1.107759486594556142e-03,3.748002128609292764e-03,-7.288213843866191317e-03,-2.686863214470653586e-05,-1.685163428994461768e-02,8.321951865184726337e-05,7.433215720343666357e-06,-3.897123347231640743e-05,7.524525230092844463e-01,1.521074709826337745e-01,-4.097931116960202402e+00,8.256674772051336708e-01,9.055692427387007637e-01,9.702614743218096471e-01,9.874264965893810864e-01,9.009560198993971092e-01,-3.277821910311135012e-02,-4.941469238907592043e-02,-1.689317604872592748e-01
1.010000000000218279e+00,8.500000000000000000e+01,8.292852576517818264e+00,-2.300606661207990289e+00,1.371791196031934135e+02,nan,nan,nan,7.708052221666749082e-01,8.572403199171335642e-01,9.700705480972091621e-01,9.933191127243334861e-01,5.579510187574059366e-01,5.844328066807322752e-01,1.260935393343015853e+00,1.362859696560840828e+00,9.247124179982670056e-02,-7.774288958950211992e+00,1.922759067999217564e+01,1.947919583168179480e+00,-3.981510880473497593e+01,1.950263507410214814e+01,1.917420788710092916e+00,-3.969848295495717849e+01,-3.486139632166562231e-03,3.203726779057364249e-03,3.544681273795375308e-03,-7.121313928393355891e-03,-2.788547162204001029e-05,-1.595814907376543954e-02,7.926999182714675532e-05,7.499159392513986577e-06,-3.855195732073240199e-05,7.482877781031644915e-01,1.519465555536923529e-01,-4.217011921659008067e+00,8.221292449697391591e-01,9.024523647957636285e-01,9.702491609139486384e-01,9.878065291699754669e-01,8.978588007263377246e-01,-3.159326656166716596e-02,-5.484183118879148999e-02,-1.676720593688670879e-01
1.020000000000436557e+00,8.500000000000000000e+01,8.583597311740623681e+00,-2.018201054939694039e+00,1.378034436494326940e+02,nan,nan,nan,7.662112550430071334e-01,8.569064150651087841e-01,9.630216711759921333e-01,9.928958935206412262e-01,5.358192719679789606e-01,5.849797770919104023e-01,1.172034703016494817e+00,2.181040733222022077e+00,-5.672437310412696831e-01,-8.189358829057756139e+00,1.906924355821673700e+01,1.917859573388595473e+00,-4.079950277409254511e+01,1.933142174344962427e+01,1.868501071029691651e+00,-4.069120646031439037e+01,-3.257062503338397242e-03,5.174228616300473663e-03,3.338099686587776838e-03,-6.853146002867244700e-03,-2.981568391809555902e-05,-1.486300852208728533e-02,7.451928308528990574e-05,7.427352880266444792e-06,-3.777509243426723434e-05,7.416112547280341305e-01,1.520144072398412205e-01,-4.323839541682131582e+00,8.185229252083925378e-01,8.995149691780353063e-01,9.697830383100948248e-01,9.881347576212224926e-01,8.947588087011872915e-01,-3.041046883872627893e-02,-6.028469118337537180e-02,-1.663999472942587765e-01
1.029999999999745341e+00,8.500000000000000000e+01,8.878103859590183333e+00,-1.739198465906483415e+00,1.384325358923006775e+02,nan,nan,nan,7.616172879197572465e-01,8.565725102131144242e-01,9.559727942554160363e-01,9.924726743169873799e-01,5.782169044119264134e-01,6.122968384146222354e-01,1.011611809587320998e+00,2.645433020845665784e+00,-8.821483399929725966e-01,-8.720382759160678177e+00,1.883407203640285488e+01,1.909499233572182542e+00,-4.169887166191869454e+01,1.909907304219918345e+01,1.842929086780030978e+00,-4.160950529336462722e+01,-2.796524234608892961e-03,6.976162313577524351e-03,3.354431248100014657e-03,-7.411630324662269072e-03,-3.608393169762637781e-05,-1.285417800117064774e-02,6.441305910065473048e-05,8.243541380164697623e-06,-4.180676180377015765e-05,7.325589414284404688e-01,1.522950518618146898e-01,-4.419201976217467021e+00,8.148529090909513162e-01,8.967454805292315312e-01,9.688923740335594337e-01,9.884145229476140049e-01,8.916588166763187440e-01,-2.922767111589297251e-02,-6.572755117746426068e-02,-1.651278352197658728e-01
1.039999999999963620e+00,8.500000000000000000e+01,9.176399946519859796e+00,-1.463590647950734125e+00,1.390662312057228007e+02,nan,nan,nan,7.570233207960895827e-01,8.562386053610896441e-01,9.489239173341990075e-01,9.920494551132950090e-01,6.344165235331303832e-01,6.453396705810764411e-01,8.358912562877670593e-01,2.515468386334423379e+00,-1.164686275154362738e+00,-9.171989304620373318e+00,1.853804295001984315e+01,1.894208750566966026e+00,-4.250443220132321187e+01,1.880907215534557153e+01,1.811665855674337466e+00,-4.243655177854849825e+01,-2.276705523481879767e-03,8.649581875868327455e-03,3.442052202892276896e-03,-8.150605960073806916e-03,-4.336938594534439292e-05,-1.064231903961491109e-02,5.282181111339532263e-05,9.280096904537853304e-06,-4.725476448699732581e-05,7.212668755305340351e-01,1.527734274766563705e-01,-4.503844777382001396e+00,8.111233045874354231e-01,8.941330700226901573e-01,9.676045480567520007e-01,9.886489506821843909e-01,8.885588246511684218e-01,-2.804487339295202997e-02,-7.117041117204803147e-02,-1.638557231451573948e-01
1.050000000000181899e+00,8.500000000000000000e+01,9.478513212642175390e+00,-1.191369854252321669e+00,1.397043575915427311e+02,nan,nan,nan,7.524293536724218079e-01,8.559047005090648641e-01,9.418750404129818676e-01,9.916262359096026380e-01,6.903337488972797198e-01,6.406565312750694963e-01,7.686744440043947746e-01,2.077341964726267420e+00,-1.511357168850462340e+00,-9.309140819664339261e+00,1.817544431411999639e+01,1.915737053261860945e+00,-4.321488959913183692e+01,1.846201843341287230e+01,1.818229764975555884e+00,-4.315585485807293509e+01,-2.129052665286997569e-03,1.021157494055685393e-02,3.558709092097091416e-03,-8.890082883233866792e-03,-4.449817025080641999e-05,-9.808610777529038274e-03,4.961572345203039063e-05,1.033850553425408802e-05,-5.317574922368618917e-05,7.078698924533532999e-01,1.534353448403023568e-01,-4.578472523190647792e+00,8.073379547325199024e-01,8.916676072154310351e-01,9.659451745351532725e-01,9.888409647829213833e-01,8.854588326260177666e-01,-2.686207567001108742e-02,-7.661327116663191328e-02,-1.625836110705489723e-01
1.060000000000400178e+00,8.500000000000000000e+01,9.881086298298907167e+00,-9.131907378477792658e-01,1.400552278266181361e+02,nan,nan,nan,7.478353865487541441e-01,8.555707956570400841e-01,9.348261634917647278e-01,9.912030167059102670e-01,7.461794024167771600e-01,6.264118584644732257e-01,7.289575771063078191e-01,1.840442563587963987e+00,-1.694065368302614560e+00,-9.722629524416896984e+00,1.775796413956039288e+01,1.946411610697170946e+00,-4.383599180330162426e+01,1.806274251339330306e+01,1.834923548731906884e+00,-4.378281732240817803e+01,-2.082092302798970590e-03,1.166932357859477680e-02,3.706444031319105006e-03,-9.632922400799588322e-03,-4.407086683073970488e-05,-9.324194974785810289e-03,4.867015628961732232e-05,1.141901668634554797e-05,-5.963265485572832658e-05,6.925006208666149021e-01,1.542674477169574954e-01,-4.643750367526317646e+00,8.035004547119871665e-01,8.893396150072847561e-01,9.639382156901308285e-01,9.889933006329467702e-01,8.823588406008673335e-01,-2.567927794707014488e-02,-8.205613116121573958e-02,-1.613114989959404388e-01
1.069999999999708962e+00,8.500000000000000000e+01,1.029543707717130729e+01,-6.365613251922498383e-01,1.403810986135931387e+02,nan,nan,nan,7.432414194255042572e-01,8.552368908050456131e-01,9.277772865711887418e-01,9.907797975022564207e-01,7.506765240176579423e-01,6.019944115818337549e-01,6.092318532085370109e-01,1.517556909399591314e+00,-1.693313089958895512e+00,-1.049706461308609384e+01,1.732007496016279902e+01,1.912455418373813609e+00,-4.434197755878535929e+01,1.761870648828953634e+01,1.787581414680189829e+00,-4.430291164955553285e+01,-1.756680948301972368e-03,1.306670373882367828e-02,3.702034512372018825e-03,-9.715624813978982269e-03,-4.458035200186570828e-05,-7.810653140596856073e-03,4.125094037323424428e-05,1.171864778760491423e-05,-6.240755930773510957e-05,6.752886866114151676e-01,1.552571734014522586e-01,-4.700305639765046450e+00,7.996141678472757919e-01,8.871402275048472230e-01,9.616060883471923004e-01,9.891085172022801020e-01,8.792588485759987860e-01,-2.449648022423683846e-02,-8.749899115530451743e-02,-1.600393869214477016e-01
1.079999999999927240e+00,8.500000000000000000e+01,1.071189562074211565e+01,-3.623637865722418305e-01,1.407109836838550905e+02,nan,nan,nan,7.386474523018364824e-01,8.549029859530208331e-01,9.207284096499716020e-01,9.903565782985641608e-01,7.077370064785317716e-01,5.681791845698513921e-01,4.155925988391970249e-01,9.281886469175295584e-01,-1.766001103838338526e+00,-1.095596326215213701e+01,1.686340556205333741e+01,1.829079674132003897e+00,-4.474305579920421394e+01,1.713237098098078093e+01,1.691366149700544108e+00,-4.472563167291889386e+01,-1.138594971552959545e-03,1.440870778338090331e-02,3.539210878335425324e-03,-9.183881715089868905e-03,-4.598150473818843874e-05,-5.338228046118006533e-03,2.698488695518910517e-05,1.125285533955635089e-05,-6.133853527695325625e-05,6.563600933780036062e-01,1.563927137516700761e-01,-4.748729471321844642e+00,7.956822405490305838e-01,8.850611506029059106e-01,9.589697636030997119e-01,9.891890084252441540e-01,8.761588565508482418e-01,-2.331368250129595143e-02,-9.294185114988845475e-02,-1.587672748468392236e-01
1.090000000000145519e+00,8.500000000000000000e+01,1.113051162607237998e+01,-9.059153737583458543e-02,1.410448204929789711e+02,nan,nan,nan,7.340534851781688186e-01,8.545690811009960530e-01,9.136795327287545732e-01,9.899333590948717898e-01,7.528848970488781767e-01,5.252532145858725965e-01,3.392687040277725941e-01,4.000664302024742880e-01,-1.760893356847264224e+00,-1.112778951792721926e+01,1.632011823434281084e+01,1.823327901950235530e+00,-4.511086623706439269e+01,1.659982879624287833e+01,1.678141547558098523e+00,-4.510409690530094906e+01,-9.329484564091559788e-04,1.518547020553597665e-02,3.713458173521854214e-03,-9.796058692370995455e-03,-4.368262220506752459e-05,-4.368072750124766743e-03,2.221142830501376443e-05,1.217523322736287935e-05,-6.813988154310132641e-05,6.358367525543635601e-01,1.576629769687361571e-01,-4.789578430348010230e+00,7.917076163064148409e-01,8.830946251081023268e-01,9.560488600653990199e-01,9.892370138441222149e-01,8.730588645256978086e-01,-2.213088477835500889e-02,-9.838471114447222554e-02,-1.574951627722307457e-01
1.100000000000363798e+00,8.500000000000000000e+01,1.155133437560951215e+01,1.787616741371211293e-01,1.413825439467258320e+02,nan,nan,nan,7.305049937581845620e-01,8.544220229897417918e-01,9.083541060279018975e-01,9.879608677603806122e-01,8.230229252157441611e-01,4.797425537208343527e-01,2.962268303412521897e-01,-2.877349388336009062e-01,-1.591518632541456535e+00,-1.112118048166129114e+01,1.578623081773961978e+01,1.818782419442916298e+00,-4.541036789712110533e+01,1.608824310156822435e+01,1.682923181551347680e+00,-4.541106017007157192e+01,-8.426573088626736294e-04,1.420722932515482151e-02,3.975424154788396482e-03,-1.073790969402364272e-02,-4.030870833559131397e-05,-3.823768440454116714e-03,2.010319322044481558e-05,1.351560884769934200e-05,-7.774245691258035074e-05,6.161678495010806111e-01,1.589585314102976432e-01,-4.822393298800367489e+00,7.877604746543076519e-01,8.812454425505005240e-01,9.529728815793453434e-01,9.891547113356417009e-01,8.703104976340522159e-01,-2.215513374953925751e-02,-1.017618954820179722e-01,-1.556939785201780779e-01
1.109999999999672582e+00,8.500000000000000000e+01,1.201714458472934766e+01,4.170966795768339397e-01,1.414473496111040731e+02,nan,nan,nan,7.301368783053963085e-01,8.548433596118660827e-01,9.082714789847969872e-01,9.812754329941186793e-01,8.263584317669209200e-01,4.371454107416195556e-01,2.167801334054542672e-01,-1.303846670920173256e+00,-1.500279136263082513e+00,-1.091589379893197709e+01,1.548651063940704198e+01,1.765664401686949159e+00,-4.558961170607845759e+01,1.578370149481147777e+01,1.650240353642193458e+00,-4.559950532737354933e+01,-5.796721623512496747e-04,1.207182561691542283e-02,3.940827000678264781e-03,-1.081020780409370878e-02,-3.807999499014385106e-05,-2.803512835178649520e-03,1.397139440694208191e-05,1.374836971112973355e-05,-8.098258830426357234e-05,6.043972633970471353e-01,1.599760788863236749e-01,-4.844734298899776803e+00,7.840441551924453023e-01,8.795426926203426810e-01,9.500899533527074059e-01,9.886465529196217794e-01,8.686317874740445699e-01,-2.585126364857404102e-02,-9.885521765789573312e-02,-1.522833370308266376e-01
1.119999999999890861e+00,8.500000000000000000e+01,1.249044855336570592e+01,6.505332266500988281e-01,1.414717039365999085e+02,nan,nan,nan,7.297687628525745263e-01,8.552646962340286763e-01,9.081888519416847494e-01,9.745899982272485662e-01,7.886808988982261237e-01,3.963370059805956247e-01,1.149828961654671966e-01,-2.494015119781834766e+00,-1.384229916669378335e+00,-1.112059313493154988e+01,1.539685109344057778e+01,1.696063426273657360e+00,-4.566694584852737648e+01,1.567206739420310591e+01,1.599464087059050854e+00,-4.568715140148746201e+01,-1.954921214851268268e-04,1.010597902881464963e-02,3.723781963247125952e-03,-1.034423564479021451e-02,-3.659707033216720281e-05,-1.486683697180885867e-03,4.963933288704570975e-06,1.326527576425956778e-05,-7.977255186649833546e-05,6.000064014401512713e-01,1.607344962680252176e-01,-4.857308192245168854e+00,7.805437715018552769e-01,8.779769314359977539e-01,9.473876249922146275e-01,9.877400033274427171e-01,8.669530773138840463e-01,-2.954739354794522210e-02,-9.594853983350898341e-02,-1.488726955411651121e-01
