t_s,phi_deg,roll_deg,pitch_deg,yaw_deg,pos_x,pos_y,pos_z,u0,u1,u2,u3,wx,wy,wz,wx_dot,wy_dot,wz_dot,pred_wx_dot,pred_wy_dot,pred_wz_dot,pred_nogyro_wx_dot,pred_nogyro_wy_dot,pred_nogyro_wz_dot,tau_gyro_x,tau_gyro_y,tau_gyro_z,flap_damp_x,flap_damp_y,flap_damp_z,flap_prec_x,flap_prec_y,flap_prec_z,tau_cmd_x,tau_cmd_y,tau_cmd_z,spd0,spd1,spd2,spd3,sem_lift,sem_roll,sem_pitch,sem_yaw
0.000000000000000000e+00,8.500000000000000000e+01,-3.506893482432094089e-01,-8.605574978827085220e-01,1.129068140907787807e+02,2.639302657070519698e-01,-1.017902612811217411e+00,-4.309124941065636816e-01,8.254411816596984863e-02,9.142782539129257202e-02,1.135386526584625244e-01,1.915897876024246216e-01,7.728724194999704068e-03,3.950195493746901966e-03,5.849468468321980183e-03,-1.017826054051778617e-01,-1.031003871485324519e-01,-3.026103012819345572e-01,-3.565147376578721605e+00,8.501251695353863325e-02,-3.372247547602077677e+00,-3.540565929615264729e+00,7.785299146610652476e-02,-3.398818669712458718e+00,-1.864690368981706352e-05,7.419162736518735302e-04,3.589845773251318373e-03,-9.508813675658293278e-04,1.816394935917341112e-07,-7.115901044843055481e-04,2.859658328652094270e-05,5.184319230934913618e-06,-4.128480748513545814e-05,-1.355261682626514863e-01,8.122883091817623830e-03,-3.628862894505148207e-01,5.835869154334068221e-02,9.142782539129257202e-02,1.135386526584625244e-01,1.915897876024246216e-01,1.197750959545373917e-01,3.458371385931968689e-02,-4.346742108464241028e-02,-6.557824835181236267e-02
9.999999999990905053e-03,8.458333333333371229e+01,-3.507617691396683335e-01,-8.567534140010182320e-01,1.129058692785055058e+02,2.638541243579415885e-01,-1.018162024542229593e+00,-4.316362670518289479e-01,8.585964157143341491e-02,9.867909422256641860e-02,1.192564096583745847e-01,1.971916638213546957e-01,9.484854708678639237e-03,2.209561280599068797e-03,5.701945859817654505e-03,-1.943203104979999429e-01,-1.109000294136219811e-01,-3.176704256849880448e-01,-3.531865471475252871e+00,7.149484717137416512e-02,-3.366287139438031595e+00,-3.502170348930097710e+00,6.017656766623267345e-02,-3.393052097248824506e+00,-1.883721467261167691e-05,1.172836348240837876e-03,3.614145216791616808e-03,-1.163109163850729270e-03,1.719340319493069983e-06,-6.913858563683410218e-04,2.881713611554791556e-05,6.860759134216898683e-06,-5.059423993266319846e-05,-1.359972143289288338e-01,6.277603413204537949e-03,-3.641092650574374590e-01,5.850986801047660529e-02,9.189548158056767835e-02,1.139074080462434274e-01,1.919510694892631042e-01,1.252467023184322681e-01,3.255790075592356059e-02,-4.537735340705655734e-02,-6.595466884286473042e-02
1.999999999998181011e-02,8.416666666666743879e+01,-3.498269638407638382e-01,-8.492554657125730433e-01,1.129006461989188637e+02,2.638155059986190265e-01,-1.019336714893633644e+00,-4.318693610653215886e-01,8.917516497689696731e-02,1.059303630538402652e-01,1.249741666582866451e-01,2.027935400402847421e-01,5.921398268948821139e-03,7.155709294730264181e-03,2.472287474566422713e-03,-2.355757953240114888e-01,-7.510959668709134285e-02,-3.252751057274289037e-01,-3.480584581322030857e+00,6.190514625935800153e-02,-3.366569592031951164e+00,-3.462329385694692174e+00,4.250969157490535472e-02,-3.397315514930427494e+00,-5.095116446992930433e-06,2.027059375050908191e-03,3.640018535344814558e-03,-7.215479122058840802e-04,-7.037090542963808011e-06,-2.924452953362014678e-04,7.632548586183220046e-06,4.572767395803875842e-06,-3.151605747480926226e-05,-1.363693955631793409e-01,4.436372968271954861e-03,-3.664098122694223192e-01,5.880247111859059073e-02,9.280063340150292162e-02,1.146211366750614080e-01,1.926503331048043943e-01,1.307183086823271445e-01,3.053208765252739265e-02,-4.728728572947069747e-02,-6.633108933391708428e-02
2.999999999997271516e-02,8.375000000000113687e+01,-3.488928485522637124e-01,-8.417574429150828097e-01,1.128954239292946653e+02,2.637787645750737653e-01,-1.019395528561137132e+00,-4.324748085789682506e-01,9.249068838236053358e-02,1.131816318851140979e-01,1.306919236581987054e-01,2.083954162592148163e-01,7.069938089416659410e-03,1.561468405246762073e-02,-2.289693903208066261e-03,-1.865558680641671574e-01,-1.623384219676308332e-02,-3.474653800117835090e-01,-3.442426828210544354e+00,5.151308043388259233e-02,-3.374533596006549452e+00,-3.420839671275959226e+00,2.467191638894519062e-02,-3.410845807533871898e+00,1.638922017275847866e-05,2.820453159744409650e-03,3.686758531855829826e-03,-8.536946171392583186e-04,-2.435689401030692808e-05,2.869127975660511328e-04,-2.490997520773120363e-05,5.777730428229245675e-06,-3.751355027416084404e-05,-1.366323344253182748e-01,2.576540477796597853e-03,-3.697204976054201397e-01,5.922737983720910426e-02,9.411506544177702938e-02,1.156575901805185630e-01,1.936657809883602088e-01,1.361899150462220209e-01,2.850627454913126635e-02,-4.919721805188483760e-02,-6.670750982496945203e-02
4.000000000002046363e-02,8.333333333333247595e+01,-3.479594232219825889e-01,-8.342593454805286024e-01,1.128902024695959199e+02,2.632494179916946009e-01,-1.019529446374062065e+00,-4.332188406570097738e-01,9.580621178784294589e-02,1.204329007164291615e-01,1.364096806581432397e-01,2.139972924781767261e-01,1.380592702735095392e-02,2.823914188886835278e-02,-8.868692162911495994e-03,-4.773196198833178083e-02,1.670892648172616138e-02,-4.094208883035332924e-01,-3.418631643865380543e+00,4.006112746259908597e-02,-3.389374411546383303e+00,-3.377360425139992017e+00,6.404153902288167895e-03,-3.433030796617647873e+00,4.761967532506844209e-05,3.555544225148067183e-03,3.757400040738229346e-03,-1.647826341214733139e-03,-5.401406819662739003e-05,1.071613235448501964e-03,-7.110287768810380667e-05,1.184737570723028404e-05,-7.296243970396006117e-05,-1.367699323287643598e-01,6.768962533464711537e-04,-3.739792360163776141e-01,5.977606137861434660e-02,9.581238198608059420e-02,1.169959550623172334e-01,1.949770214632027820e-01,1.416615214101480391e-01,2.648046144572363536e-02,-5.110715037430985097e-02,-6.708393031602392920e-02
5.000000000001136868e-02,8.291666666666618823e+01,-3.470266877978207543e-01,-8.267611732810118408e-01,1.128849818197855797e+02,2.639189628537077503e-01,-1.019161175124978058e+00,-4.338707626903280934e-01,9.912173519330649829e-02,1.276841695477030081e-01,1.421274376580553001e-01,2.195991686971067725e-01,1.487717303938450482e-02,2.661416500986774764e-02,-1.762838052368578129e-02,6.665810232321318918e-02,2.853152618537817264e-02,-4.812246181472580875e-01,-3.375048129364072391e+00,2.766715614905122106e-02,-3.409910926927927743e+00,-3.331485203265015294e+00,-1.245976043833651320e-02,-3.462934743834610529e+00,7.951711851541856647e-05,4.241859575852614458e-03,3.811774526602785661e-03,-1.751280802917949382e-03,-6.645215663101022494e-05,2.071989671058926518e-03,-1.165164094928729265e-04,1.331443786580598613e-05,-7.823079027174982894e-05,-1.367615421628902705e-01,-1.282686213321091590e-03,-3.791287539269492246e-01,6.044053326029278500e-02,9.786788965836140664e-02,1.186167601455418164e-01,1.965649779733126545e-01,1.471331277740429155e-01,2.445464834232748130e-02,-5.301708269672399110e-02,-6.746035080707628306e-02
6.000000000000227374e-02,8.249999999999990052e+01,-3.490884091260444411e-01,-8.313544668040736552e-01,1.128626768748344062e+02,2.634270251660664752e-01,-1.019462905681397524e+00,-4.349473245732920490e-01,1.024372585987700646e-01,1.349354383789768685e-01,1.478451946579673604e-01,2.252010449160368466e-01,8.287490545045525861e-03,5.718428267789576330e-03,-2.933720729687993439e-02,1.054612626352737469e-02,1.802334732641843254e-02,-5.300256284196597223e-01,-3.307039958947695535e+00,1.444879626128738742e-02,-3.434974076446011271e+00,-3.282801818300540742e+00,-3.197966595527402395e-02,-3.499919523848183278e+00,1.104708145075235796e-04,4.884435164370284216e-03,3.841595260342680306e-03,-9.602695561967737820e-04,-4.572130359053588064e-05,3.348092771781535811e-03,-1.586368130640810996e-04,7.688835999030577690e-06,-4.331472380387810608e-05,-1.365829625497854971e-01,-3.321537349102854104e-03,-3.851161127103480686e-01,6.121332781409600382e-02,1.002584876328413005e-01,1.205017900100540523e-01,1.984118042672853577e-01,1.526047341379377920e-01,2.242883523893134112e-02,-5.492701501913814510e-02,-6.783677129812863693e-02
6.999999999999317879e-02,8.208333333333361281e+01,-3.518983075064838206e-01,-8.389832425687181461e-01,1.128360905932412948e+02,2.636691292679406717e-01,-1.019791034621466252e+00,-4.350690464359464049e-01,1.057527820042336308e-01,1.421867072102507012e-01,1.535629516578794207e-01,2.308029211349669207e-01,-8.675558305652423391e-04,-9.542049136765654721e-03,-3.825029132631969225e-02,-9.081720333570937609e-02,-2.176305049473340608e-02,-5.515211599180819269e-01,-3.229716671282329532e+00,-1.907315933473739200e-05,-3.470308180147463784e+00,-3.230763137207289581e+00,-5.227186954272366320e-02,-3.543815647799442470e+00,1.346901688531615415e-04,5.483590593829735377e-03,3.864151307481761971e-03,9.877728933206508116e-05,-2.860268765201990894e-05,4.260169236522240443e-03,-1.893482705385468503e-04,-8.300008684807401861e-07,4.501667809920181908e-06,-1.362072780457849741e-01,-5.458419392577655224e-03,-3.918922853802178086e-01,6.208745898430922255e-02,1.029625649256447895e-01,1.226340040030793610e-01,2.005008050522753549e-01,1.580763405018326684e-01,2.040302213553521482e-02,-5.683694734155228523e-02,-6.821319178918100468e-02
7.999999999998408384e-02,8.166666666666732510e+01,-3.547047130457477437e-01,-8.466134192419165760e-01,1.128095108612584312e+02,2.624676201137745579e-01,-1.021479034589699353e+00,-4.355213508314217385e-01,1.090683054096971971e-01,1.494379760415245340e-01,1.592807086577914810e-01,2.364047973538969671e-01,-1.596590791466764511e-02,-1.174704180715244704e-02,-4.068633951311238089e-02,-5.196952933939116143e-02,-9.108235540831348398e-02,-5.371170288496337486e-01,-3.134233520062550404e+00,-1.597807783290725731e-02,-3.518640169213993918e+00,-3.174731186262873983e+00,-7.345909089445211426e-02,-3.594056128173445330e+00,1.440655667304724169e-04,6.044817228448500640e-03,3.865900945824076416e-03,1.783613085196463464e-03,-2.958292021497156709e-05,4.433254163604076654e-03,-1.978188680873685856e-04,-1.567871862384942732e-05,8.215377531680920534e-05,-1.356055663849727866e-01,-7.711705310068770261e-03,-3.994117801640451604e-01,6.305639126701348407e-02,1.059599043104029470e-01,1.249974604749175960e-01,2.028163617652085360e-01,1.635479468657275448e-01,1.837720903213907464e-02,-5.874687966396641148e-02,-6.858961228023335854e-02
8.999999999997498890e-02,8.125000000000103739e+01,-3.575076258822570963e-01,-8.542449969672220034e-01,1.127829376848243328e+02,2.624577178479923778e-01,-1.021512821914815738e+00,-4.357890678826774056e-01,1.123838288151607634e-01,1.566892448727983944e-01,1.649984656577035413e-01,2.420066735728270413e-01,-2.862886735841186844e-02,-1.188194181629251452e-02,-4.276832864723573158e-02,6.576058527820129174e-02,-1.370979388932958565e-01,-5.476190447826183583e-01,-3.042973164881459969e+00,-3.454225544489581551e-02,-3.572934275276995919e+00,-3.114201525909449320e+00,-9.596629811438821267e-02,-3.650031064469450914e+00,1.539977394319638022e-04,6.474584976091628773e-03,3.909131780058253819e-03,3.134092326951228025e-03,-3.517863363065120401e-05,4.555499296806957664e-03,-2.060455260129263010e-04,-2.874094655685453372e-05,1.459105016757610094e-04,-1.347474911376247420e-01,-1.009951736113769843e-02,-4.076323053952199960e-01,6.411401065264187016e-02,1.092315924306296732e-01,1.275772459009213433e-01,2.053438631312328455e-01,1.690195532296224490e-01,1.635139592874293446e-02,-6.065681198638056548e-02,-6.896603277128569853e-02
1.000000000000227374e-01,8.083333333333239068e+01,-3.603070461541205693e-01,-8.618779758883817754e-01,1.127563710698630501e+02,2.622764349255768401e-01,-1.021898474221630160e+00,-4.366688269482784102e-01,1.155952542906602543e-01,1.616999195147934554e-01,1.699635306411289015e-01,2.481188826920175949e-01,-2.834255336247110471e-02,-1.009911989193257309e-03,-4.296774352584463441e-02,1.316746320842850926e-01,-1.000232155171816434e-01,-6.363189171623897522e-01,-2.990316453139703956e+00,-5.802180430816585022e-02,-3.636018084740459511e+00,-3.058517276254971051e+00,-1.203130794740134707e-01,-3.713850675518784339e+00,1.658401885605236112e-04,6.597540779096006287e-03,4.104961846001183023e-03,3.038509189763009127e-03,-6.789792682957749930e-05,4.487860848729497906e-03,-2.154673389730184664e-04,-2.901135455811160028e-05,1.428093021410942968e-04,-1.340383242167015876e-01,-1.263901943882074670e-02,-4.168266481739975049e-01,6.524985093486375398e-02,1.126154330346346294e-01,1.303108651971256471e-01,2.081025531080393787e-01,1.738443967846500515e-01,1.602534341337774615e-02,-6.213000863751094727e-02,-7.039361976384639341e-02
1.100000000000136424e-01,8.041666666666610297e+01,-3.594119760213903003e-01,-8.558683523001476834e-01,1.127176933570808188e+02,2.629712412158723422e-01,-1.022162581101366818e+00,-4.374343301453071930e-01,1.186045172372160311e-01,1.623592666358089631e-01,1.734668362832353372e-01,2.552221796235923379e-01,-1.392288918045856555e-02,5.780784530805962301e-03,-4.942541093254210899e-02,1.622139946448568626e-01,-8.518168924638555572e-02,-7.051324555029708785e-01,-2.994984427847954045e+00,-8.522200078728399408e-02,-3.706209933808804369e+00,-3.026763308338260572e+00,-1.465946720826092342e-01,-3.790998179555415071e+00,1.998233724689588750e-04,6.521738849616135272e-03,4.437674665890531042e-03,1.462015826443620022e-03,-1.030815616535591490e-04,5.056306873556993230e-03,-2.515095853210709835e-04,-1.452112281434105415e-05,6.915059556668203108e-05,-1.343285381789612876e-01,-1.534398544140013268e-02,-4.275855153634940953e-01,6.644964949602362447e-02,1.158235628396598882e-01,1.330941238863571907e-01,2.111414398862115072e-01,1.774131999449631847e-01,1.900029697088204128e-02,-6.275504636947495940e-02,-7.386261601690133349e-02
1.200000000000045475e-01,7.999999999999981526e+01,-3.573736271616312909e-01,-8.456080159281471609e-01,1.126752559735115113e+02,2.624441173091598412e-01,-1.022666397562835172e+00,-4.384939419592212007e-01,1.216137801837717941e-01,1.630186137568244431e-01,1.769701419253418007e-01,2.623254765551670808e-01,1.330461846027950618e-02,8.872918614353516448e-03,-6.155439601336956668e-02,2.356743134873453271e-01,-1.271943314165380479e-01,-6.641679924421407533e-01,-3.049673314160743054e+00,-1.147773028511629018e-01,-3.784713258220879339e+00,-3.017981332706432429e+00,-1.752351198393087561e-01,-3.881142626461036471e+00,2.546753343873810627e-04,6.434018238853552937e-03,4.836803089264468843e-03,-1.368694911628476861e-03,-1.401895934322274124e-04,6.157624011806486775e-03,-3.100310913551588979e-04,1.412961448257131527e-05,-6.497463578522839748e-05,-1.356151936946404790e-01,-1.822739987071420389e-02,-4.398876442913018381e-01,6.770928147388056983e-02,1.188673139648941390e-01,1.359238205744984496e-01,2.144424527292446703e-01,1.809820031052762901e-01,2.197525052838630866e-02,-6.338008410143897153e-02,-7.733161226995631521e-02
1.299999999999954525e-01,7.958333333333352755e+01,-3.553429842769330049e-01,-8.353464225144076050e-01,1.126328343892731709e+02,2.624266609843194376e-01,-1.022957652325391820e+00,-4.389181826073802473e-01,1.246230431303275710e-01,1.636779608778399231e-01,1.804734475674482364e-01,2.694287734867418238e-01,2.039413011300492823e-02,9.327564441901565681e-03,-7.096652988565954612e-02,3.211719948710444195e-01,-9.523730905924647494e-02,-6.048042401234210441e-01,-3.077660415864593713e+00,-1.455198958150634991e-01,-3.878252418826739767e+00,-3.031317660519896151e+00,-2.051396187921907255e-01,-3.983688564743744998e+00,2.978238805092183914e-04,6.363286400884351872e-03,5.169073831488585173e-03,-2.055743307251968726e-03,-1.656076441846226523e-04,6.937354270312149143e-03,-3.501479378144832771e-04,2.204019519448653620e-05,-9.772749594455970622e-05,-1.378967527406350368e-01,-2.130181158120881407e-02,-4.537129352377637370e-01,6.902488803099596226e-02,1.217572876869936482e-01,1.387969603349905878e-01,2.179886863369141781e-01,1.845508062655893955e-01,2.495020408589061767e-02,-6.400512183340296979e-02,-8.080060852301128305e-02
1.399999999999863576e-01,7.916666666666723984e+01,-3.533200471107906249e-01,-8.250835717396842739e-01,1.125904286281631670e+02,2.625532323391148171e-01,-1.023167516642826458e+00,-4.393238124824321300e-01,1.276323060768833340e-01,1.643373079988554031e-01,1.839767532095546720e-01,2.765320704183165668e-01,-3.528974357626238345e-03,5.720464956665594590e-03,-7.619469909509006544e-02,2.694380144146426015e-01,1.327703552702380434e-02,-6.996993894040784978e-01,-3.059378864019013378e+00,-1.765040777143319084e-01,-3.987478447959978745e+00,-3.066015161137983114e+00,-2.354663271640046462e-01,-4.098209149224098624e+00,3.208579377856975341e-04,6.323173588515642110e-03,5.384224331978773419e-03,3.486182187375532729e-04,-1.690420654071171126e-04,7.272365677038797674e-03,-3.639214486830180543e-04,-3.878637219076964833e-06,1.656390624662947076e-05,-1.411728085795410093e-01,-2.457948978789162991e-02,-4.690421443765798726e-01,7.039285919799179170e-02,1.245034015743205769e-01,1.417107413931182613e-01,2.217643256827757925e-01,1.881196094259025009e-01,2.792515764339491280e-02,-6.463015956536698192e-02,-8.426960477606625088e-02
1.499999999999772626e-01,7.875000000000095213e+01,-3.513048154081116481e-01,-8.148194632844948382e-01,1.125480387138919696e+02,2.630968942487958429e-01,-1.023579677869979720e+00,-4.402000911454640453e-01,1.306415690234390969e-01,1.649966551198708831e-01,1.874800588516611077e-01,2.836353673498913652e-01,-1.001486876676609995e-02,-2.608354904443986946e-03,-7.741518933518619361e-02,1.425768195522666149e-01,8.618518144823127114e-02,-9.057993396002836928e-01,-3.101187790434179803e+00,-2.100647796470510864e-01,-4.112210832457815712e+00,-3.121353122469764152e+00,-2.686641667431720615e-01,-4.224642707522131779e+00,3.223455544932626979e-04,6.267806150413234717e-03,5.678573153968684284e-03,9.697626183878907966e-04,-1.451745209462255862e-04,7.205763812862514724e-03,-3.524620519662871230e-04,-1.118789928825863306e-05,4.597344834069642516e-05,-1.454438599245881092e-01,-2.807254441967638181e-02,-4.858566320402841754e-01,7.180981782329926011e-02,1.271149335813522574e-01,1.446625426690646976e-01,2.257545756991224950e-01,1.916884125862156063e-01,3.090011120089923569e-02,-6.525519729733102181e-02,-8.773860102912124648e-02
1.600000000000250111e-01,7.833333333333229120e+01,-3.510576659200806970e-01,-8.060169210857529576e-01,1.125011902576547413e+02,2.619538830339573909e-01,-1.027477556621620991e+00,-4.400643693192239359e-01,1.336508319700119851e-01,1.656560022408901101e-01,1.909833644937874719e-01,2.907386642815064648e-01,1.163758886862709813e-02,-1.855659494370409321e-02,-7.216850499156424181e-02,6.700215673526724314e-02,1.256786505076027127e-01,-1.058518128490350874e+00,-3.220429649127488858e+00,-2.467474615826158735e-01,-4.253516195508781905e+00,-3.196668329979901912e+00,-3.054496374689582017e-01,-4.362385200134874630e+00,2.869654630364754013e-04,6.182377737287041500e-03,6.099867289861940142e-03,-1.104805769778656336e-03,-7.447066660607416983e-05,6.533429939164902417e-03,-3.025306281112145890e-04,1.320705202657182302e-05,-5.218072600261759383e-05,-1.507111229049560297e-01,-3.179301726033279679e-02,-5.041381578215407000e-01,7.327260455803696892e-02,1.296005632993092738e-01,1.476499121243542989e-01,2.299455954967728477e-01,1.952572157465490288e-01,3.387506475842043396e-02,-6.588023502929855890e-02,-9.120759728219592077e-02
1.700000000000159162e-01,7.791666666666600349e+01,-3.581153333665432759e-01,-8.032848602995703580e-01,1.124358148689106542e+02,2.620393623341051303e-01,-1.027859210145524171e+00,-4.405364820184184960e-01,1.366600949165677481e-01,1.663153493619056178e-01,1.944866701358939076e-01,2.978419612130812077e-01,2.349683969246075046e-02,-1.320751614895533492e-02,-8.394297510883713676e-02,-1.898381902715876729e-02,1.141935571690804452e-01,-1.143644947303519288e+00,-3.336807337880970614e+00,-2.865379151034086469e-01,-4.392228676907238949e+00,-3.290858997405519126e+00,-3.442328830397550221e-01,-4.511334502435485838e+00,3.474277600980907300e-04,6.106046278971862494e-03,6.488284509135931744e-03,-2.187375106357325374e-03,-1.181511883366765368e-04,7.444943465182096709e-03,-3.520056758587795476e-04,2.707532060797461442e-05,-1.027914326299549037e-04,-1.569763753007135665e-01,-3.575294928248530513e-02,-5.238687152043319806e-01,7.477826380925670091e-02,1.319684105464052348e-01,1.506705558598630257e-01,2.343244368272134615e-01,1.988260189068621342e-01,3.685001831592471522e-02,-6.650527276126258491e-02,-9.467659353525088861e-02
1.800000000000068212e-01,7.749999999999971578e+01,-3.651763370406829745e-01,-8.005613796092235779e-01,1.123704740903962858e+02,2.620938727156738035e-01,-1.026211848899297063e+00,-4.419202787933009802e-01,1.396693578631235111e-01,1.669746964829210978e-01,1.979899757780003433e-01,3.049452581446559507e-01,2.899688629119026237e-02,5.970944840998724384e-03,-1.067701064685214057e-01,-1.696850291089521401e-01,4.575848435691670657e-02,-1.171427740192665601e+00,-3.457826416753701171e+00,-3.295613626111635330e-01,-4.533933452879335135e+00,-3.403237609179022183e+00,-3.854435651494182435e-01,-4.671379692779225934e+00,4.754832324951254342e-04,6.036192737312252171e-03,6.856087479442196306e-03,-2.647575710634171402e-03,-2.452881612137971677e-04,9.304300284512970198e-03,-4.622615008424502472e-04,3.391038910300411547e-05,-1.236457239812234954e-04,-1.642418282620941028e-01,-3.996442869964237504e-02,-5.450303994467884383e-01,7.632403059911123389e-02,1.342260714692964096e-01,1.537223279169386281e-01,2.388789865135187152e-01,2.023948220671752396e-01,3.982497187342901035e-02,-6.713031049322659705e-02,-9.814558978830585645e-02
1.899999999999977263e-01,7.708333333333342807e+01,-3.722406771336965181e-01,-7.978464789914332389e-01,1.123051680152880465e+02,2.620625375486744235e-01,-1.026145367857874913e+00,-4.426166588379423228e-01,1.426786208096792741e-01,1.676340436039365778e-01,2.014932814201068068e-01,3.120485550762307492e-01,4.054317721903440835e-02,1.232837432642157859e-02,-1.159280162484894183e-01,-3.459224133908967991e-01,-2.475434374387129252e-02,-1.130331017298080054e+00,-3.607523708678989305e+00,-3.747098274433671161e-01,-4.697027891774440356e+00,-3.533846559657494169e+00,-4.295230011112442514e-01,-4.841852880698425565e+00,5.313509010509580082e-04,5.957736956422862717e-03,7.256365985960535302e-03,-3.631570170723189689e-03,-2.936738965145078051e-04,9.890511204661833755e-03,-4.960532337399270334e-04,4.809789130089848098e-05,-1.683683201779818494e-04,-1.725100213770698887e-01,-4.443962351331700450e-02,-5.676053033288400718e-01,7.790731827151106681e-02,1.363806523162390538e-01,1.568032207362723418e-01,2.435979125940637702e-01,2.059636252274883450e-01,4.279992543093331936e-02,-6.775534822519062306e-02,-1.016145860413608659e-01
1.999999999999886313e-01,7.666666666666715457e+01,-3.793083538365604190e-01,-7.951401584230890496e-01,1.122398967363028532e+02,2.618222959687973583e-01,-1.027023292225374584e+00,-4.436345057274471704e-01,1.456878837562350371e-01,1.682933907249520578e-01,2.049965870622132424e-01,3.191518520078054921e-01,5.884221689390465443e-02,4.366633147353133140e-03,-1.098194541707500915e-01,-3.752162389556771283e-01,-1.041970167795018970e-01,-1.055918272397963875e+00,-3.786108743884291972e+00,-4.209014863326882572e-01,-4.881376171987469981e+00,-3.682384508152480418e+00,-4.763808306306425711e-01,-5.022262148278513472e+00,5.006874221975277919e-04,5.954747532028399452e-03,7.685249877898791757e-03,-5.171846156757241644e-03,-2.452714829848776546e-04,9.148002088941989754e-03,-4.490839906576623718e-04,7.078586093082202908e-05,-2.378085184665746287e-04,-1.817837375170635317e-01,-4.919080169955053483e-02,-5.915754361510610071e-01,7.952570699161655432e-02,1.384388010321142559e-01,1.599113562321079762e-01,2.484706139395944646e-01,2.095324283878014504e-01,4.577487898843761449e-02,-6.838038595715463519e-02,-1.050835822944158338e-01
2.099999999999795364e-01,7.625000000000085265e+01,-3.773483984775500844e-01,-7.978746431005863116e-01,1.121545795222849051e+02,2.623250379616809957e-01,-1.027576130393448306e+00,-4.443620958738033755e-01,1.488102631940828868e-01,1.702761466733921369e-01,2.092271758350045252e-01,3.266170822461819112e-01,6.067404515183870417e-02,-6.052325874697409664e-04,-1.185874056868419096e-01,-1.183334989283015698e-01,-1.548329124345185770e-01,-1.046417655860135243e+00,-3.946933188140725246e+00,-4.676611104213775350e-01,-5.065526088647619218e+00,-3.843603650274767691e+00,-5.255560017670108941e-01,-5.212833813835786145e+00,5.405056697853173131e-04,6.194650694628519097e-03,8.024293125898664808e-03,-5.232830893605414438e-03,-2.381440681516104694e-04,9.648534060467768222e-03,-4.655124901057683721e-04,7.396147954445556928e-05,-2.385522271712782645e-04,-1.918578078872663073e-01,-5.425073796860649389e-02,-6.169552299456726452e-01,8.118209071009384326e-02,1.404920874411107468e-01,1.630918821239356054e-01,2.535105152898173841e-01,2.137326669871653650e-01,4.796201146593406794e-02,-6.942789494524331806e-02,-1.083789241068556924e-01
2.200000000000272848e-01,7.583333333333219173e+01,-3.712867452596049778e-01,-8.030664135199110376e-01,1.120602213947988446e+02,2.622050510825825187e-01,-1.028195276044074902e+00,-4.448518238237644251e-01,1.521183018704354573e-01,1.744310268833018096e-01,2.146514617483960552e-01,3.346763572729099523e-01,2.757729388703437923e-02,7.647223766007998219e-04,-1.589099097575812358e-01,2.957758278517721995e-01,-1.189884348051908625e-01,-1.198428347660295934e+00,-4.053871838599609312e+00,-5.152377696957984865e-01,-5.239666994068644001e+00,-4.010183492604742383e+00,-5.758931863956080477e-01,-5.413955452467409835e+00,7.369293572971029197e-04,6.607192600298981977e-03,8.191124579547265361e-03,-2.332931314266180681e-03,-3.248282582065779595e-04,1.263946622235299737e-02,-6.088786514059867485e-04,3.402460005765312083e-05,-1.055013256499898487e-04,-2.023893116070638598e-01,-5.967104613697923887e-02,-6.437862549610855467e-01,8.288248443784607122e-02,1.426809119705669815e-01,1.664171148644194298e-01,2.587451451517542855e-01,2.189692869437608325e-01,4.885608525582377237e-02,-7.116881026869012472e-02,-1.113892451337843703e-01
2.300000000000181899e-01,7.541666666666590402e+01,-3.652170598140299651e-01,-8.082492932926548246e-01,1.119659346717816817e+02,2.623626829205067401e-01,-1.028551463404229649e+00,-4.453144426587093418e-01,1.554263405467692094e-01,1.785859070931878900e-01,2.200757476617567487e-01,3.427356322995921412e-01,-1.637711766587277191e-03,3.801741113950488343e-03,-1.917665229619359701e-01,4.658660976349181526e-01,-3.604847026980197849e-02,-1.411401565369301503e+00,-4.175839125871084967e+00,-5.654700098117423357e-01,-5.430292847870507700e+00,-4.182193799614331020e+00,-6.286877165897970521e-01,-5.625202183971008019e+00,9.071128685568386049e-04,6.988460437136054075e-03,8.373349879801863724e-03,1.358547902108702397e-04,-4.049847767960217094e-04,1.490692908005026088e-02,-7.187524005960901734e-04,-2.042923023930013099e-06,6.097741050967811922e-06,-2.133866006474224308e-01,-6.547255820123487613e-02,-6.720593488178929764e-01,8.462404983668546377e-02,1.449965333584498639e-01,1.698777218726010285e-01,2.641619448965815131e-01,2.242059069003264904e-01,4.975015904570835590e-02,-7.290972559212703652e-02,-1.143995661606959091e-01
2.400000000000090949e-01,7.499999999999961631e+01,-3.591393419357055694e-01,-8.134232824273290863e-01,1.118717196261843725e+02,2.625024231475492908e-01,-1.029051670788688089e+00,-4.455186749255828915e-01,1.587343792231029616e-01,1.827407873030739704e-01,2.255000335751174145e-01,3.507949073262743300e-01,-2.285641648591206151e-02,1.027287041488537077e-02,-2.092435837455174086e-01,2.635019545079267389e-01,-5.328159165282866927e-02,-1.484918273372424879e+00,-4.318705013308127505e+00,-6.199065460175280373e-01,-5.641606907831693718e+00,-4.359482177695092275e+00,-6.855307705353496095e-01,-5.846306690423429764e+00,1.015510083504985762e-03,7.332582349191513194e-03,8.590679022300217599e-03,1.858795860273202609e-03,-4.737587404680979834e-04,1.589732225618338199e-02,-7.713830625044320200e-04,-2.879836828815600188e-05,8.284703564568262832e-05,-2.248575523319606417e-01,-7.167596370333453870e-02,-7.017654671498316787e-01,8.640413162141231951e-02,1.474307740930709265e-01,1.734649724538074311e-01,2.697491658393149638e-01,2.294425268568921483e-01,5.064423283559295330e-02,-7.465064091556396220e-02,-1.174098871876074063e-01
2.500000000000000000e-01,7.458333333333332860e+01,-3.530535914198056902e-01,-8.185883809320387838e-01,1.117775765289925545e+02,2.619377071876441976e-01,-1.031386297254507589e+00,-4.464107348918384122e-01,1.620424178994366859e-01,1.868956675129600509e-01,2.309243194884781081e-01,3.588541823529565189e-01,-3.981014994311852379e-02,1.109334293035298818e-02,-2.195859726186187855e-01,-3.911466939159911199e-02,-1.915408375776440353e-01,-1.452856309672037050e+00,-4.476088483857905587e+00,-6.786042558636239397e-01,-5.867726945482917955e+00,-4.542621542792597999e+00,-7.468107805963936086e-01,-6.077154042576464299e+00,1.083556723636007078e-03,7.646083143442782525e-03,8.826184402246353353e-03,3.173421607301184222e-03,-4.987972563401426229e-04,1.628909724422222469e-02,-7.891601148184951113e-04,-5.061806319232772236e-05,1.405147086520860174e-04,-2.368096089762000145e-01,-7.830181466133134816e-02,-7.328954539856645800e-01,8.822024575417507231e-02,1.499759840551254386e-01,1.771706989821879019e-01,2.754958170030871734e-01,2.346791468134578340e-01,5.153830662547753683e-02,-7.639155623900088787e-02,-1.204202082145189451e-01
2.599999999999909051e-01,7.416666666666704089e+01,-3.485334440797381306e-01,-8.200700842122770062e-01,1.116538416650646468e+02,2.620876465703746439e-01,-1.030287986164460712e+00,-4.475112283276067582e-01,1.653504565757704381e-01,1.910505477228461035e-01,2.363486054018388016e-01,3.669134573796387078e-01,-5.336080133249676560e-02,7.405074918334728779e-03,-2.242355038975676618e-01,-3.426795448174510539e-01,-2.743315770597493097e-01,-1.530431413864148604e+00,-4.646039070703748664e+00,-7.419650013795081600e-01,-6.107250647071670535e+00,-4.731584502697344874e+00,-8.128794502577333381e-01,-6.317628466513577123e+00,1.117443576953930026e-03,7.931199827379184150e-03,9.076103442317311545e-03,4.168826976860793253e-03,-4.866724013188565155e-04,1.622900538920280314e-02,-7.804336386318474648e-04,-6.841081622727941366e-05,1.834588029540418024e-04,-2.492498145616093841e-01,-8.537052632928872342e-02,-7.654398592165401194e-01,9.007006840021249128e-02,1.526250065045675064e-01,1.809872605867079709e-01,2.813916162522662745e-01,2.399157667700235197e-01,5.243238041536210647e-02,-7.813247156243778579e-02,-1.234305292414304839e-01
2.699999999999818101e-01,7.375000000000075318e+01,-3.448297319089538848e-01,-8.196392212507166430e-01,1.115148638684824363e+02,2.617488743957358532e-01,-1.032736700755752191e+00,-4.473191768722327155e-01,1.686584952521041902e-01,1.952054279327321840e-01,2.417728913151994674e-01,3.749727324063208966e-01,-5.103419340495133488e-02,-1.776748963366334491e-04,-2.258436082377680565e-01,-5.556449496725850423e-01,-2.274099058838545684e-01,-1.750431789411056593e+00,-4.845895329356208592e+00,-8.122573438548572611e-01,-6.357964132244392275e+00,-4.926314180015123334e+00,-8.858676486327051736e-01,-6.567555407429015446e+00,1.129033226244516167e-03,8.163957069149524112e-03,9.403204533906766097e-03,3.907310253497198703e-03,-4.440048772926565024e-04,1.593684967622590112e-02,-7.563360229354082693e-04,-6.592082116724161888e-05,1.709621611608122147e-04,-2.621848486309462656e-01,-9.290237488818808842e-02,-7.993887956685655771e-01,9.195142559587339559e-02,1.553711462610941618e-01,1.849075091791431147e-01,2.874269445771476805e-01,2.451523867265892054e-01,5.332645420524673163e-02,-7.987338688587471147e-02,-1.264408502683419810e-01
2.799999999999727152e-01,7.333333333333446546e+01,-3.411280874104596350e-01,-8.192017987737720830e-01,1.113760418502561436e+02,2.623783369827165646e-01,-1.030900422100266667e+00,-4.483513056908708383e-01,1.719665339284379424e-01,1.993603081426182644e-01,2.471971772285601610e-01,3.830320074330030855e-01,-2.783192970846736641e-02,-1.288094708125884710e-02,-2.234527993806502688e-01,-3.849290054902857472e-01,-1.339491835209932202e-01,-1.931018044212764018e+00,-5.080661566819315134e+00,-8.904325292008901105e-01,-6.619738386476484493e+00,-5.126863759680444943e+00,-9.667733348882908695e-01,-6.826545118035910242e+00,1.108967729252849713e-03,8.330830746807274881e-03,9.836428116897119947e-03,2.088193597211213549e-03,-3.593764505100748930e-04,1.536102082318234474e-02,-7.128480944331806518e-04,-3.619586074298630746e-05,9.087456089229289534e-05,-2.756210575826033571e-01,-1.009174929545623434e-01,-8.347318293579517601e-01,9.386228358297689367e-02,1.582081399367658847e-01,1.889247576730297140e-01,2.935928033269635251e-01,2.503890066831548911e-01,5.422052799513130128e-02,-8.161430220931162327e-02,-1.294511712952535198e-01
2.900000000000204636e-01,7.291666666666581875e+01,-3.374285105895703518e-01,-8.187578167835637410e-01,1.112373764669248430e+02,2.620992057808566034e-01,-1.031909876140430837e+00,-4.487502536958282717e-01,1.752745726047905128e-01,2.035151883525279648e-01,2.526214631419516632e-01,3.910912824597310711e-01,9.197035785355581888e-03,-1.852089725052956035e-02,-2.376337263581399517e-01,7.878895810343143624e-02,-5.526203455263482833e-02,-1.934698200364420861e+00,-5.336430817922012793e+00,-9.768647977122832948e-01,-6.880771460113688676e+00,-5.332359990076540157e+00,-1.054635426888800964e+00,-7.094052005003774752e+00,1.187358190225206367e-03,8.416830931396779292e-03,1.030098149641814342e-02,-6.762197828490476700e-04,-3.478334810345766752e-04,1.592816311107577917e-02,-7.322612105623311357e-04,1.203477399031157201e-05,-2.927836665655661084e-05,-2.895644835329086453e-01,-1.094358636145968122e-01,-8.714578974234363784e-01,9.580073976653975809e-02,1.611301280884168408e-01,1.930327502522735383e-01,2.998807742010676236e-01,2.556256266397503030e-01,5.511460178502097795e-02,-8.335521753275842993e-02,-1.324614923221821283e-01
3.000000000000113687e-01,7.249999999999953104e+01,-3.337310014515874612e-01,-8.183072752822501128e-01,1.110988685657601565e+02,2.617812700585534502e-01,-1.032663858118172406e+00,-4.499437819979754116e-01,1.789344578441504630e-01,2.080743029860408211e-01,2.578508275519634796e-01,3.985390647347931692e-01,6.599186944578372405e-02,-1.406352313880608954e-02,-2.755046663702251375e-01,3.790504520153988866e-01,2.735822319900548319e-02,-1.866480099554076455e+00,-5.614957164204358087e+00,-1.075397869522073391e+00,-7.135577021458654023e+00,-5.538830034489890863e+00,-1.152387493816626973e+00,-7.367035356815123670e+00,1.414667429697852915e-03,8.356515919945505314e-03,1.074016093029363586e-02,-4.754725109790343060e-03,-4.463619013866244574e-04,1.802776436340127256e-02,-8.367842189581456988e-04,8.679880331493200788e-05,-2.048664099023702115e-04,-3.038214581130510017e-01,-1.184530002758643202e-01,-9.091726636708239440e-01,9.778105724914244734e-02,1.641576994627676478e-01,1.972130634817841899e-01,3.062435448092142298e-01,2.608496632792369763e-01,5.577419602046967961e-02,-8.491404116236002386e-02,-1.346905657282826685e-01
3.100000000000022737e-01,7.208333333333324333e+01,-3.417382501710545251e-01,-8.240793964822740181e-01,1.109237759167068873e+02,2.613400494932162643e-01,-1.033321653884063052e+00,-4.507335322513376097e-01,1.832997277795730684e-01,2.134438299015313789e-01,2.626894118326676963e-01,4.047609216376244490e-01,7.539067994655269944e-02,-1.791596779028257341e-02,-2.974994975673157516e-01,3.644656173431928270e-01,6.243568035607310190e-02,-1.886574712363441098e+00,-5.824329818729647279e+00,-1.170130948386040926e+00,-7.400553643635221057e+00,-5.740340660668965533e+00,-1.246944673584196250e+00,-7.639264469354758447e+00,1.544843206124793186e-03,8.335530927805017559e-03,1.084154899185878554e-02,-5.322069691819486699e-03,-4.593711422560756022e-04,1.897902935958070691e-02,-8.769318289853785626e-04,9.949833422268848085e-05,-2.282191948567559932e-04,-3.179867570331746940e-01,-1.279341434455077975e-01,-9.470851110472817691e-01,9.983269938613285877e-02,1.673363106108884946e-01,2.014358305960527173e-01,3.125972274676546703e-01,2.660484727878491551e-01,5.596370384149923494e-02,-8.610780596345753157e-02,-1.353533878945938351e-01
3.199999999999931788e-01,7.166666666666696983e+01,-3.567335094787341121e-01,-8.336287446513084287e-01,1.107269523276786884e+02,2.612443079291372761e-01,-1.034179838095347304e+00,-4.511309433947616188e-01,1.876649977149957016e-01,2.188133568170219367e-01,2.675279961133719131e-01,4.109827785404556733e-01,3.879433496691314653e-02,-2.983262079822544474e-02,-3.040874645448131131e-01,9.479068187834008286e-02,8.387510893683818285e-04,-1.995708757215191698e+00,-5.972397006779979201e+00,-1.258441015769373283e+00,-7.674168725886973519e+00,-5.937251668979506292e+00,-1.336341840457617725e+00,-7.910827424973767563e+00,1.574370264426403800e-03,8.419716349958505583e-03,1.069395079504264004e-02,-2.682962264950057227e-03,-3.856493128344438493e-04,1.889170492733498533e-02,-8.581496910075051216e-04,5.129425740497200542e-05,-1.145117532125551813e-04,-3.320619092968480901e-01,-1.378906045190726459e-01,-9.851919040016263729e-01,1.019510662355079395e-01,1.706562205223887685e-01,2.056983136160539793e-01,3.189424082856653353e-01,2.712472822964612784e-01,5.615321166252876250e-02,-8.730157076455499765e-02,-1.360162100609049740e-01
3.299999999999840838e-01,7.125000000000066791e+01,-3.716979982860064702e-01,-8.432343344899101423e-01,1.105304470814923121e+02,2.604164339839345477e-01,-1.035673581123273346e+00,-4.515159742287149780e-01,1.920302676504183348e-01,2.241828837325124946e-01,2.723665803940761299e-01,4.172046354432868975e-01,1.964990199258095926e-03,-3.486620178302438089e-02,-3.224825099341565582e-01,-1.011023931707504403e-01,-7.032304034322675590e-02,-2.197290088629673566e+00,-6.116483202989074996e+00,-1.351811855224543280e+00,-7.941531869905410268e+00,-6.128343123542499882e+00,-1.430163565860002706e+00,-8.181796728300318122e+00,1.685368977106768999e-03,8.505238594456216925e-03,1.053788506651786791e-02,-1.331268594256587441e-04,-3.789734876087296031e-04,1.952321988175632905e-02,-8.820857458515543549e-04,2.599365643205194617e-06,-5.655872167764469119e-06,-3.460480090316012669e-01,-1.483337172086895139e-01,-1.023488637569136106e+00,1.041318545193931494e-01,1.741083164140068418e-01,2.099979511432850665e-01,3.252796355725684485e-01,2.764460918050734572e-01,5.634271948355829007e-02,-8.849533556565246373e-02,-1.366790322272161129e-01
3.399999999999749889e-01,7.083333333333438020e+01,-3.866317192608655917e-01,-8.528961666820309429e-01,1.103342625881885226e+02,2.602995958315139635e-01,-1.036053018747671084e+00,-4.522187056148281870e-01,1.963955375858409402e-01,2.295524106480030246e-01,2.772051646747803466e-01,4.234264923461181773e-01,-3.522879013426874484e-02,-2.913395216748011080e-02,-3.593450369420989055e-01,8.493503493323445452e-02,-9.142823766560589926e-02,-2.518139837680665405e+00,-6.255406780639970243e+00,-1.449717236596676173e+00,-8.199570231277839127e+00,-6.313226224043529733e+00,-1.527470192004415805e+00,-8.451797840768868753e+00,1.930715079829804391e-03,8.592920113018289591e-03,1.037280488921606125e-02,2.338061129517856294e-03,-4.829798984523403830e-04,2.122218996951641054e-02,-9.701213796882717129e-04,-4.656764504700938761e-05,9.888240654589184686e-05,-3.599458188261117630e-01,-1.592748313874987054e-01,-1.061970045288420650e+00,1.063710384912782136e-01,1.776840732133483369e-01,2.143323469715550378e-01,3.316094222755646692e-01,2.816449013136856361e-01,5.653222730458787315e-02,-8.968910036674995756e-02,-1.373418543935272795e-01
3.500000000000227374e-01,7.041666666666571928e+01,-4.015346750762602279e-01,-8.626142419236624281e-01,1.101384012198530655e+02,2.599955326365939734e-01,-1.036593765533532441e+00,-4.534666352432665803e-01,2.007608075212883869e-01,2.349219375635241136e-01,2.820437489555120969e-01,4.296483492489847622e-01,-3.207930065456771063e-02,-2.239401212390153273e-02,-3.915319703004576102e-01,3.031249061848108051e-01,-5.453741409656331224e-02,-2.886763740262766387e+00,-6.437179099727347698e+00,-1.562054724098866254e+00,-8.458272173713529796e+00,-6.492794667352218774e+00,-1.638653378085252577e+00,-8.720284800048462515e+00,2.159753761485086725e-03,8.569068848734351027e-03,1.042992380451166455e-02,2.085670692382768279e-03,-5.864974972668241318e-04,2.255316260443071541e-02,-1.042236095409366159e-03,-4.232778326818971816e-05,8.781426947838009089e-05,-3.737558548878343601e-01,-1.707253055916983231e-01,-1.100630171497226195e+00,1.086648520371840815e-01,1.813755156556424442e-01,2.186992594332365369e-01,3.379322482603455691e-01,2.868437108223273468e-01,5.672173512561845543e-02,-9.088286516785419600e-02,-1.380046765598421654e-01
3.600000000000136424e-01,6.999999999999943157e+01,-4.066094049450157955e-01,-8.614311883956534688e-01,1.098917535870733957e+02,2.601883475482969499e-01,-1.036925903492012635e+00,-4.537560658502841071e-01,2.051260774567110201e-01,2.402914644790146714e-01,2.868823332362163137e-01,4.358702061518159865e-01,3.611686105322532703e-02,-1.402934237251303451e-02,-4.161803028209635769e-01,1.469955109785630598e-01,2.759769703931049672e-02,-3.139163748013835686e+00,-6.684889672636171731e+00,-1.698805174076205127e+00,-8.718088670818728403e+00,-6.667064690215062761e+00,-1.773192821472657110e+00,-8.987423161885708112e+00,2.356884045667580023e-03,8.349253001772503208e-03,1.086201943518605613e-02,-2.300475712138917023e-03,-6.891469724648124169e-04,2.338105662833075971e-02,-1.092727633307348989e-03,4.752414024721216012e-05,-9.643086004705365857e-05,-3.874784567186050355e-01,-1.826964986180911188e-01,-1.139462513316706005e+00,1.110097719311745057e-01,1.851751828249846299e-01,2.230965914326024369e-01,3.442485624446129933e-01,2.920425203309395257e-01,5.691124294664801075e-02,-9.207662996895166208e-02,-1.386674987261533043e-01
3.700000000000045475e-01,6.958333333333314386e+01,-4.049158864461642748e-01,-8.526563820494271750e-01,1.096102057080457683e+02,2.600877326280580104e-01,-1.037772974930329273e+00,-4.542545644564865426e-01,2.094913473921336255e-01,2.456609913945052015e-01,2.917209175169205304e-01,4.420920630546472108e-01,7.577116541667719418e-02,-2.389778204146348652e-03,-4.417264727327858131e-01,-2.054085323361480309e-01,7.961080095158827585e-02,-3.254992683008568477e+00,-6.892158911393861054e+00,-1.834785850521524875e+00,-8.978048526458023204e+00,-6.835905732872975982e+00,-1.906955645930634269e+00,-9.254062195933176582e+00,2.574975079068408685e-03,8.195368189677927628e-03,1.113862984021221116e-02,-4.728626492655501994e-03,-8.202956303834469049e-04,2.420748310539498627e-02,-1.147350894138490784e-03,9.934605903767319498e-05,-1.973473061236022223e-04,-4.011138436404730889e-01,-1.951997605670854896e-01,-1.178460136904556199e+00,1.134025021707775333e-01,1.890760949824334125e-01,2.275223811219534986e-01,3.505587847940148660e-01,2.972413298395516490e-01,5.710075076767756608e-02,-9.327039477004911427e-02,-1.393303208924644432e-01
3.799999999999954525e-01,6.916666666666685614e+01,-4.032701830863559267e-01,-8.438837542168379224e-01,1.093293015971374302e+02,2.596787627737756066e-01,-1.038749132375440309e+00,-4.545708869682605902e-01,2.138566173275562587e-01,2.510305183099957871e-01,2.965595017976247472e-01,4.483139199574784906e-01,6.388355230838954624e-02,1.516370865439928967e-02,-4.688939898529542738e-01,-3.029445659256945755e-01,1.110244721564451337e-01,-3.429825266475122980e+00,-7.037460155636205528e+00,-1.961335960375507614e+00,-9.238200939793042465e+00,-6.998792798636636725e+00,-2.031555730179154473e+00,-9.519882173275314940e+00,2.827807796052768299e-03,8.188648435351383176e-03,1.111623848107466325e-02,-3.906528332265496624e-03,-1.002994436590460507e-03,2.507506715691147636e-02,-1.211272199833278614e-03,8.339901390174439891e-05,-1.623303651487344634e-04,-4.146621601853018868e-01,-2.082464236064656971e-01,-1.217615771923907353e+00,1.158399593226578927e-01,1.930717225334553921e-01,2.319747931790635820e-01,3.568633081893483605e-01,3.024401393481638278e-01,5.729025858870712140e-02,-9.446415957114662199e-02,-1.399931430587756098e-01
3.899999999999863576e-01,6.875000000000056843e+01,-4.016722944287010044e-01,-8.351133046774132929e-01,1.090490480210854969e+02,2.594341024897847126e-01,-1.039267232570659560e+00,-4.549108557575326506e-01,2.182218872629788919e-01,2.564000452254863172e-01,3.013980860783289639e-01,4.545357768603097148e-01,2.096200464206894598e-02,1.764160698125850912e-02,-4.980885305635313065e-01,-1.930806436157818939e-01,1.865178613953034914e-01,-3.775618589560451266e+00,-7.150921236298029449e+00,-2.081322444716299902e+00,-9.497805524254241405e+00,-7.159925300362452560e+00,-2.151035512352319046e+00,-9.783952500362882887e+00,3.052249115669393269e-03,8.260958144201781261e-03,1.085155011418455391e-02,-1.256210901196130100e-03,-1.075058358460641208e-03,2.596154189034779666e-02,-1.257921775879732376e-03,2.723027102662754778e-05,-5.197505017153492544e-05,-4.281235120847933784e-01,-2.218477926715939075e-01,-1.256921887624376621e+00,1.183192588133926415e-01,1.971559569967550885e-01,2.364521106471702827e-01,3.631625001733435054e-01,3.076389488567759511e-01,5.747976640973664897e-02,-9.565792437224410194e-02,-1.406559652250867487e-01
3.999999999999772626e-01,6.833333333333428072e+01,-4.001222200425105791e-01,-8.263450332109920637e-01,1.087694515908818573e+02,2.576685433647143419e-01,-1.041431783339846984e+00,-4.563956171313953147e-01,2.226369273082393907e-01,2.614958958929636257e-01,3.053295258226782494e-01,4.599613915797333141e-01,-5.519136650759753904e-02,3.976231690790376500e-03,-5.294536529651623358e-01,-3.320623513523127124e-01,2.561666358552617817e-01,-4.203423280320881972e+00,-7.233885134068972711e+00,-2.192270325997505598e+00,-9.755204724000456906e+00,-7.320062008768510431e+00,-2.262394512042880557e+00,-1.004250194701047860e+01,3.240992793280507087e-03,8.344645349492040703e-03,1.006715220884132900e-02,3.242125134141965112e-03,-1.021266019365642394e-03,2.686971040667960470e-02,-1.286338032244944713e-03,-7.128854620545758503e-05,1.335552103903092235e-04,-4.414803636881027282e-01,-2.359802370194594157e-01,-1.295809467191653130e+00,1.208399714502738781e-01,2.013054336390530663e-01,2.408942228150678100e-01,3.694053525257385839e-01,3.123559351509036519e-01,5.788644858616540101e-02,-9.674541717088966375e-02,-1.405790471006042874e-01
4.100000000000250111e-01,6.791666666666561980e+01,-4.010711572459552121e-01,-8.256466405392917096e-01,1.084123074277158736e+02,2.573028684769917418e-01,-1.042634222485598228e+00,-4.570236128873104153e-01,2.272837023898347242e-01,2.653174802291907719e-01,3.050372020922412220e-01,4.616796162234092504e-01,-6.831030271924287689e-02,-6.574725945070665836e-03,-5.735548501399261312e-01,-5.166710015139925893e-01,1.970676740475042765e-01,-4.516351034670982756e+00,-7.373830650219488803e+00,-2.329014640846708062e+00,-9.982937635463626336e+00,-7.474245273724331007e+00,-2.397211623580560502e+00,-1.027558371821734617e+01,3.520018723950679111e-03,8.145058023097938651e-03,9.399844923080125439e-03,3.935885492460494336e-03,-1.008230009115391318e-03,2.836384621858487054e-02,-1.346415193123409737e-03,-8.760683383585072300e-05,1.613621091842484660e-04,-4.546537781955299340e-01,-2.504828298554162003e-01,-1.331630572606249396e+00,1.234099926955024296e-01,2.054337635179475929e-01,2.450309969377071906e-01,3.753563979955888974e-01,3.148295002336689574e-01,5.930431814590597650e-02,-9.733809598526205198e-02,-1.370578178483124743e-01
4.200000000000159162e-01,6.749999999999933209e+01,-4.038390408960869093e-01,-8.310079792877513860e-01,1.079979618041981695e+02,2.566661259270004436e-01,-1.045127332663369213e+00,-4.570623298301994542e-01,2.319304774714036343e-01,2.691390645653961577e-01,3.047448783618059154e-01,4.633978408670754168e-01,-1.060418153823489140e-02,-1.362634533261299248e-02,-6.319662132996091142e-01,-3.866549555543007943e-01,-6.001885781001362746e-02,-4.650635359589171181e+00,-7.572774814332557725e+00,-2.499616422146310857e+00,-1.017842950960566384e+01,-7.622689903369429310e+00,-2.564001325664277520e+00,-1.048332223178128864e+01,3.904459244300816437e-03,7.707483948379997146e-03,9.181606911516357328e-03,5.996313014248779967e-04,-1.042256246748715079e-03,3.047733116528164587e-02,-1.440271240425638945e-03,-1.348553052799644298e-05,2.445804200993313522e-05,-4.676543050886247110e-01,-2.653533563707561327e-01,-1.364453629682198521e+00,1.260261424882608561e-01,2.095423104519659740e-01,2.488821251862118056e-01,3.810344560885376430e-01,3.173030653164202741e-01,6.072218770563850287e-02,-9.793077479963099852e-02,-1.335365885960407839e-01
4.300000000000068212e-01,6.708333333333304438e+01,-4.065784401079928223e-01,-8.364105937080549280e-01,1.075850110185215982e+02,2.569695773460959343e-01,-1.046151923104762682e+00,-4.575781720258945140e-01,2.365772525529725723e-01,2.729606489016015436e-01,3.044525546313705533e-01,4.651160655107415831e-01,2.267553028025942261e-02,-1.579350087395147220e-02,-6.833593163976390272e-01,-3.682180252823456512e-01,-3.536949478297269356e-01,-4.838426047766064109e+00,-7.740902070000144519e+00,-2.666793737811151033e+00,-1.035371818061450888e+01,-7.764964754207463571e+00,-2.727702251405318634e+00,-1.066689567156964280e+01,4.268430741135143848e-03,7.357267906342866010e-03,8.826022596054437785e-03,-1.259085501143124243e-03,-1.096568333174291563e-03,3.216256478804520313e-02,-1.519441015937291915e-03,2.856113265732998900e-05,-5.107885442104346673e-05,-4.804918085816761719e-01,-2.805896315887232983e-01,-1.394355538658681226e+00,1.286854458594428319e-01,2.136323503028682569e-01,2.524660297242178331e-01,3.864571325835695070e-01,3.197766303991715908e-01,6.214005726537102925e-02,-9.852345361400000057e-02,-1.300153593437690103e-01
4.399999999999977263e-01,6.666666666666675667e+01,-4.092893549022384447e-01,-8.418544840181534372e-01,1.071734757686710111e+02,2.561340737011427171e-01,-1.047062119433385341e+00,-4.584261972333197876e-01,2.412240276345414824e-01,2.767822332378069294e-01,3.041602309009352467e-01,4.668342901544077495e-01,2.788229090197682364e-03,-7.329034346043782067e-03,-7.194763337453017327e-01,-5.688034989744976677e-01,-4.200227884787618993e-01,-5.383924513146822299e+00,-7.853350944863698224e+00,-2.813178481411713339e+00,-1.051361419752380222e+01,-7.899042314114712582e+00,-2.871344646135105982e+00,-1.082757846875380281e+01,4.579836858700537215e-03,7.207467362696669093e-03,8.143607724900801467e-03,-1.521053810119735801e-04,-1.208096297213372486e-03,3.307901158608456821e-02,-1.574141285564616913e-03,3.474603106629884817e-06,-6.135757081848044554e-06,-4.931755297263709648e-01,-2.961895135295600778e-01,-1.421419607944469199e+00,1.313851197046691788e-01,2.177050766482428457e-01,2.557999446144864075e-01,3.916408978099015781e-01,3.222501954819228520e-01,6.355792682510352787e-02,-9.911613242836897486e-02,-1.264941300914973199e-01
4.499999999999886313e-01,6.625000000000048317e+01,-4.119717852970302685e-01,-8.473396504395203088e-01,1.067633760268504943e+02,2.552689683306413881e-01,-1.049991163230323599e+00,-4.592948553944249945e-01,2.458708027161104204e-01,2.806038175740123708e-01,3.038679071704998846e-01,4.685525147980738603e-01,1.077811644009720252e-02,-1.372145757815375084e-03,-7.701598638856338441e-01,-6.798741501554280697e-01,-3.404297753780097247e-01,-5.937867076359989227e+00,-7.985516821370484131e+00,-2.977038582102745412e+00,-1.064571235557146700e+01,-8.029154960395363361e+00,-3.031881027700713549e+00,-1.096596657846096079e+01,4.981118665053204005e-03,6.963527971761813984e-03,7.647763559172957200e-03,-5.779553734821195853e-04,-1.320096332249472496e-03,3.459715165609170140e-02,-1.654462173895234357e-03,1.327537751380478723e-05,-2.317726818281566815e-05,-5.057141411207077830e-01,-3.121509143975240708e-01,-1.445733808678616894e+00,1.341225604103530589e-01,2.217616060882608986e-01,2.588999924431110156e-01,3.966011598755622702e-01,3.247237605646741132e-01,6.497579638483599873e-02,-9.970881124273797691e-02,-1.229729008392254630e-01
4.599999999999795364e-01,6.583333333333418125e+01,-4.104719896106936439e-01,-8.558865933723145414e-01,1.062730658714719709e+02,2.542355761834758088e-01,-1.052076933021229399e+00,-4.600021611728157267e-01,2.505175777976793583e-01,2.844254019102177566e-01,3.035755834400645226e-01,4.702707394417400266e-01,3.972106317453078655e-02,2.699996475660264295e-03,-8.317918799944439279e-01,-7.254532835616473996e-01,-2.313922913613144228e-01,-6.033222378410376230e+00,-8.130104419770329827e+00,-3.157377378621234243e+00,-1.075286366605576660e+01,-8.155399425256486978e+00,-3.208444106097038340e+00,-1.108317506809647490e+01,5.453160153784067377e-03,6.645154165569384930e-03,7.299263873018286414e-03,-2.094666145244417858e-03,-1.429172802887050502e-03,3.651689758141560271e-02,-1.751696346722160166e-03,4.831162582654672540e-05,-8.349300071520836437e-05,-5.181157951771490078e-01,-3.284718098723204971e-01,-1.467389306326039033e+00,1.368953322777976545e-01,2.258029832101820233e-01,2.617812560019988632e-01,4.013523331732382071e-01,3.271973256474254299e-01,6.639366594456855286e-02,-1.003014900571069512e-01,-1.194516715869537449e-01
4.700000000000272848e-01,6.541666666666552032e+01,-4.049025581636514493e-01,-8.673365390325404878e-01,1.057065625154754684e+02,2.538062326408326297e-01,-1.054278799310057302e+00,-4.602179642409143234e-01,2.551643528792746918e-01,2.882469862464448473e-01,3.032832597096275506e-01,4.719889640854159629e-01,1.653975865420049401e-02,5.506773354422770175e-03,-9.024806589858203054e-01,-4.906772093526341472e-01,-5.336440518979707059e-02,-5.969642282642676712e+00,-8.226857748928779301e+00,-3.311352141003977234e+00,-1.083927877084244074e+01,-8.277872128816538222e+00,-3.360068544191399109e+00,-1.118010066654110801e+01,5.987355943297740894e-03,6.534747954757367389e-03,6.619331702311545725e-03,-8.581514096655063015e-04,-1.535476896651058985e-03,3.872962825427764266e-02,-1.861476459808120328e-03,1.984780260251182713e-05,-3.399416234544314628e-05,-5.303881667819165813e-01,-3.451502466102935873e-01,-1.486479231194398398e+00,1.397011566938599070e-01,2.298301852326854189e-01,2.644578453483328317e-01,4.059079024679733694e-01,3.296708907301907909e-01,6.781153550430912835e-02,-1.008941688714792839e-01,-1.159304423346619595e-01
4.800000000000181899e-01,6.499999999999923261e+01,-3.992401279906038214e-01,-8.787728115280855068e-01,1.051426749246943047e+02,2.529822234670868752e-01,-1.054713132290351574e+00,-4.612284837834340623e-01,2.598111279608436019e-01,2.920685705826502332e-01,3.029909359791921886e-01,4.737071887290821293e-01,-7.539913889372307221e-02,6.644394820905938359e-03,-9.851162995894139351e-01,8.552975695870804196e-02,7.813552225599167123e-02,-6.050252906249143692e+00,-8.266011153530977040e+00,-3.419382938696971852e+00,-1.090576995815362338e+01,-8.397074363015175180e+00,-3.467759070136041899e+00,-1.125758368252008879e+01,6.602543428392513084e-03,6.708389344685705691e-03,5.486676823896245725e-03,3.850631974236117319e-03,-1.638051973976844882e-03,4.133484902938277389e-02,-1.988247653218050675e-03,-8.919691972419826727e-05,1.515755058269619793e-04,-5.425384910696540164e-01,-3.621843480755167488e-01,-1.503097654711037290e+00,1.425379020000258623e-01,2.338441263506686463e-01,2.669429605391668847e-01,4.102804828516566915e-01,3.321444558129420521e-01,6.922940506404165473e-02,-1.014868476858482860e-01,-1.124092130823902413e-01
4.900000000000090949e-01,6.458333333333295911e+01,-3.934846976849232236e-01,-8.901954111898744415e-01,1.045814527122195585e+02,2.530050643211951278e-01,-1.056294352060241026e+00,-4.615756482078512413e-01,2.644579030424125676e-01,2.958901549188556745e-01,3.026986122487568820e-01,4.754254133727482956e-01,-1.128659614954853896e-01,-1.152424655715915403e-02,-1.051616557688136444e+00,3.084025342529732594e-01,1.073255427583969801e-01,-6.143888270328399237e+00,-8.358658104253338550e+00,-3.560241909278391681e+00,-1.095891675226373785e+01,-8.522372757077071981e+00,-3.609018116963311318e+00,-1.131741881993662346e+01,7.039674653658983816e-03,6.678182620711740208e-03,4.718832692512972375e-03,5.675994058759178257e-03,-1.527320120130929706e-03,4.312548611794401326e-02,-2.055061619501089704e-03,-1.315263834902016175e-04,2.220032067608496476e-04,-5.545735969440129809e-01,-3.795723188310683449e-01,-1.517338742623784764e+00,1.454035740148672540e-01,2.378456617998453981e-01,2.692489503200777290e-01,4.144818758308676521e-01,3.346180208956933688e-01,7.064727462377415335e-02,-1.020795265002172603e-01,-1.088879838301184400e-01
5.000000000000000000e-01,6.416666666666668561e+01,-3.876362658291910845e-01,-9.016043383456555649e-01,1.040229429776159265e+02,2.516682432604819830e-01,-1.060629293937087159e+00,-4.624663989612368131e-01,2.691046781239814778e-01,2.997117392550610604e-01,3.024062885183215199e-01,4.771436380164144064e-01,-7.043861595964130695e-02,-5.800937507722657427e-02,-1.094451057431171437e+00,-1.050474512460164017e-01,4.161200542293860827e-02,-6.169361946111228789e+00,-8.528521055734188394e+00,-3.759894227687424095e+00,-1.100436067268791085e+01,-8.660338204607501922e+00,-3.811583521207830838e+00,-1.136010393634571969e+01,7.204187487305661018e-03,6.497802046195835790e-03,3.921528085656033127e-03,3.489622136803051042e-03,-1.101128146671041244e-03,4.383774447402621899e-02,-2.040515206555399644e-03,-8.079951423015715051e-05,1.356097153122196085e-04,-5.664999368923298029e-01,-3.973124474237011983e-01,-1.529296060067454111e+00,1.482963071677284583e-01,2.418355916591997112e-01,2.713873670288087236e-01,4.185231217974453299e-01,3.370915859784446300e-01,7.206514418350665196e-02,-1.026722053145862346e-01,-1.053667545778466941e-01
5.099999999999909051e-01,6.375000000000038369e+01,-3.916925795663313004e-01,-9.134122546374041640e-01,1.033411699968155375e+02,2.523329879033529011e-01,-1.064643596436041229e+00,-4.620046781399716473e-01,2.747283038508743225e-01,3.080168329368082047e-01,2.991255588402669252e-01,4.739279075906735472e-01,-3.598923122640478728e-02,-8.452246376810608475e-02,-1.164789030020069172e+00,-2.651722876807700580e-01,-8.257577386530036423e-02,-6.230125908884927455e+00,-8.638746272034408591e+00,-3.954748254226930104e+00,-1.100362198545520265e+01,-8.749034750779056679e+00,-4.012791183362228509e+00,-1.134994072942574306e+01,7.643982751968357928e-03,6.895380333188521477e-03,1.136682195215874686e-03,1.756855503709480251e-03,-8.892620523373730808e-04,4.561439858148096799e-02,-2.102590281572298565e-03,-4.051137066223467584e-05,6.790476784927247916e-05,-5.757691553959236597e-01,-4.153246957857774091e-01,-1.534292203343492922e+00,1.512588972348366811e-01,2.461038194435426207e-01,2.731762866485009655e-01,4.220963434769279821e-01,3.389496508046557777e-01,7.075690983223636987e-02,-1.040454389181702521e-01,-9.515416482162894485e-02
5.199999999999818101e-01,6.333333333333409598e+01,-4.052938913198619320e-01,-9.258230245351537491e-01,1.025420357920526016e+02,2.500284109257697729e-01,-1.064873587428435187e+00,-4.636674048859503738e-01,2.826247484112606734e-01,3.267536180234504317e-01,2.888917648914497427e-01,4.592324427152093547e-01,-2.276379199604202166e-02,-5.790349335218185345e-02,-1.308295099477727153e+00,1.746726423526272221e-01,-1.725783781432123909e-01,-6.273436692820532734e+00,-8.565474790163067453e+00,-4.137478903464854696e+00,-1.086142689890756685e+01,-8.678884545949719254e+00,-4.199811745192048917e+00,-1.120826316915425735e+01,8.833628608537666058e-03,7.716482784109055665e-03,-3.132077157137966306e-03,1.094935704155892021e-03,-1.289063481711710249e-03,5.017178753475735192e-02,-2.364033991935451939e-03,-2.493041181209761320e-05,4.223659938853207359e-05,-5.763868603352462205e-01,-4.334380247561626098e-01,-1.521439460876172767e+00,1.543904716570833058e-01,2.513051681105536450e-01,2.741898252220587584e-01,4.244913624809697472e-01,3.393756435103425506e-01,6.310590410578492682e-02,-1.072347737179746852e-01,-6.937292058597399613e-02
5.299999999999727152e-01,6.291666666666780117e+01,-4.187581243612293891e-01,-9.385083185757110424e-01,1.017481335753484331e+02,2.494405905506923149e-01,-1.067293121241363218e+00,-4.638480302604497396e-01,2.905211929716470243e-01,3.454904031100926587e-01,2.786579709426325047e-01,4.445369778397452176e-01,-4.154373532551967896e-02,-3.145150881096815676e-02,-1.383685486016009936e+00,6.038264022396739872e-01,-2.814989685160702582e-01,-6.108359313872548491e+00,-8.343657804469991390e+00,-4.294037603032088590e+00,-1.061673706675257378e+01,-8.478255606809661060e+00,-4.361775452847966861e+00,-1.094317061613870301e+01,9.578478228015033583e-03,8.592721702929006014e-03,-7.528827334179445489e-03,1.969108308326305689e-03,-1.595615906226392853e-03,5.194653390038599799e-02,-2.499073121587779434e-03,-4.389542696316852777e-05,7.602985706900666730e-05,-5.684972508963002102e-01,-4.517018480013083592e-01,-1.491536153227602579e+00,1.576801321239229836e-01,2.573794578811795519e-01,2.744779894108966833e-01,4.257841646523536916e-01,3.398016362160293236e-01,5.545489837933353927e-02,-1.104241085177791737e-01,-4.359167635031904742e-02
5.400000000000204636e-01,6.249999999999915445e+01,-4.320852824898898104e-01,-9.514681403482162514e-01,1.009595898972577146e+02,2.500456397670553499e-01,-1.069762741227565872e+00,-4.641049169198688817e-01,2.984176375320782837e-01,3.642271881968414116e-01,2.684241769937571465e-01,4.298415129641974808e-01,-9.124669279251605702e-02,-5.160862961768389323e-03,-1.393263747923588536e+00,9.973388499801045803e-01,-5.057381566136435191e-01,-5.633349913056202141e+00,-7.983142003121735719e+00,-4.423775624690729380e+00,-1.027417480169403952e+01,-8.154687644667154345e+00,-4.497924732364279699e+00,-1.056144741430002298e+01,9.875973311343948582e-03,9.517186783039264034e-03,-1.205514764696954087e-02,4.262853753756925407e-03,-1.818585111257579271e-03,5.120539744830891055e-02,-2.516536375392135552e-03,-9.223122310553796919e-05,1.651529472382867302e-04,-5.522371255053309946e-01,-4.701921475550803198e-01,-1.445396562193192569e+00,1.611176831897175588e-01,2.642703901517651777e-01,2.740875607960623350e-01,4.260458352777613533e-01,3.402276289217185945e-01,4.780389265283860323e-02,-1.136134433176017311e-01,-1.781043211451746600e-02
5.500000000000113687e-01,6.208333333333285964e+01,-4.452753694569515086e-01,-9.647024935887967834e-01,1.001765214889193629e+02,2.499096599073405700e-01,-1.075436225019650749e+00,-4.641440726044975262e-01,3.063140820924646346e-01,3.829639732834836385e-01,2.581903830449399084e-01,4.151460480887333437e-01,-9.018583187880277463e-02,1.076938007687812913e-02,-1.425171120397908275e+00,1.449893121687681585e+00,-8.401956493542089843e-01,-4.917742086146470015e+00,-7.547816718036475692e+00,-4.604411830247462589e+00,-9.813636833341446319e+00,-7.721926658842406255e+00,-4.683459056617041760e+00,-1.007053950511269491e+01,1.029999404717669639e-02,1.016517546217952060e-02,-1.613356205135752647e-02,4.154333270206964079e-03,-1.975258560404188467e-03,5.127313896899963336e-02,-2.567282880840522641e-03,-8.644084308761258706e-05,1.618062734242408111e-04,-5.277363239456622779e-01,-4.890081840136069613e-01,-1.383841262764614832e+00,1.646935869438528321e-01,2.719252971853300394e-01,2.730623038734041330e-01,4.253428751394271456e-01,3.406536216274054230e-01,4.015288692638721568e-02,-1.168027781174062196e-01,7.970812121137538231e-03
5.600000000000022737e-01,6.166666666666656482e+01,-4.419246812036872751e-01,-9.812466758240752096e-01,9.931069641950901428e+01,2.485296783654462605e-01,-1.077915810497555471e+00,-4.654946728889579610e-01,3.142105266528509855e-01,4.017007583701258655e-01,2.479565890961226982e-01,4.004505832132691512e-01,-7.656910260425253689e-03,1.007278234563908741e-02,-1.492913254581923477e+00,1.322041917015224222e+00,-1.229370573125008193e+00,-4.117821312479509999e+00,-7.064083484659701817e+00,-4.871337957959648968e+00,-9.238787604161782241e+00,-7.189282602239701170e+00,-4.953638884094111461e+00,-9.478417644577890044e+00,1.093443716206905607e-02,1.044876042458743950e-02,-1.952691066637781553e-02,3.479504865617877416e-04,-2.010494433222607350e-03,5.257374183373774573e-02,-2.669361408907537907e-03,-6.893570326886326473e-06,1.364421091757577007e-05,-4.951181218561198083e-01,-5.082694780170821103e-01,-1.307689196859936676e+00,1.683989206043287890e-01,2.802949079460497761e-01,2.714431606344809844e-01,4.237374961836360976e-01,3.410796143330921959e-01,3.250188119993577263e-02,-1.199921129172106665e-01,3.375205635679248695e-02
5.699999999999931788e-01,6.125000000000028422e+01,-4.206707306175681005e-01,-1.000970369481927635e+00,9.835659084740370872e+01,2.488702928596732422e-01,-1.079918560168475983e+00,-4.658290605872564272e-01,3.221069712132373919e-01,4.204375434567680925e-01,2.377227951473054879e-01,3.857551183378049586e-01,2.126318627883946877e-02,1.923809204196352818e-03,-1.555774289956131984e+00,5.263695973694209052e-01,-1.493844919068873844e+00,-3.331561505649856869e+00,-6.442727819085869889e+00,-5.093474667458469440e+00,-8.571917128415384113e+00,-6.555489290734668018e+00,-5.180924903120884828e+00,-8.791366958683438426e+00,1.152950001799936397e-02,1.089147002839573747e-02,-2.321100992072796729e-02,-9.538341540493190662e-04,-1.956459174047853189e-03,5.364620716325602112e-02,-2.759644462468707760e-03,1.779352416446968905e-05,-3.769480142581019115e-05,-4.544995845175651139e-01,-5.281130525945660903e-01,-1.217751234862882725e+00,1.722253368462584311e-01,2.893331290357510355e-01,2.692684325983772387e-01,4.212878981206901186e-01,3.415056070387789688e-01,2.485087547348438508e-02,-1.231814477170150857e-01,5.953330059244754668e-02
5.799999999999840838e-01,6.083333333333399651e+01,-3.991515861379933972e-01,-1.020475996621442283e+00,9.740997720017345785e+01,2.486433650955759134e-01,-1.081808040382970848e+00,-4.665914313939149016e-01,3.300034157736237428e-01,4.391743285434103194e-01,2.274890011984882776e-01,3.710596534623408216e-01,-4.070607291061983934e-02,-1.886005378387924092e-02,-1.610359823574484928e+00,-6.908484915657962799e-02,-1.612527256566620659e+00,-2.331256944180890134e+00,-5.671893090774850599e+00,-5.223069506765643411e+00,-7.822575434626960700e+00,-5.829722273514327036e+00,-5.318903925832010771e+00,-8.016575705502658522e+00,1.204740859063910957e-02,1.158526203796858556e-02,-2.748458899794529314e-02,1.803930609141742719e-03,-1.749604861170974031e-03,5.439194534597490555e-02,-2.829615214526039462e-03,-3.128063341522750095e-05,7.189230379774578497e-05,-4.059918858411634135e-01,-5.486909240838523383e-01,-1.114825005118375456e+00,1.761650266889036587e-01,2.989968397584788495e-01,2.665739511037337195e-01,4.180485271861036356e-01,3.419315997444657418e-01,1.719986974703296978e-02,-1.263707825168195464e-01,8.531454482810246764e-02
5.899999999999749889e-01,6.041666666666771590e+01,-3.773672383425004107e-01,-1.039763555574502618e+00,9.647104269376490038e+01,2.482144300794187630e-01,-1.086207630706680805e+00,-4.667390581715559206e-01,3.378998603340100937e-01,4.579111136300525464e-01,2.172552072496710673e-01,3.563641885868766290e-01,-1.338185402315406058e-02,-2.903521359570612401e-02,-1.661513599233934046e+00,-3.802621882784641416e-01,-1.798892272874284659e+00,-9.227525021807837513e-01,-4.850328482216393233e+00,-5.461411738324997600e+00,-6.988033903004517988e+00,-4.996476688872540706e+00,-5.562030088390477189e+00,-7.160258556477941738e+00,1.260200551608950739e-02,1.193251480171377520e-02,-3.100509645440509277e-02,5.863823798194288221e-04,-1.636606823463182710e-03,5.502723720185120904e-02,-2.906803673241075206e-03,-9.307278198204670821e-06,2.357408405072273987e-05,-3.497005976142443240e-01,-5.701678280974490365e-01,-9.996908012353893369e-01,1.802106847762380004e-01,3.092457004019678601e-01,2.633932366181318541e-01,4.140703182135089255e-01,3.423575924501525702e-01,9.548864020581554479e-03,-1.295601173166240072e-01,1.110957890637574719e-01
6.000000000000227374e-01,5.999999999999905498e+01,-3.553176780001434110e-01,-1.058833044567436321e+00,9.553995502457658517e+01,2.479529688113221997e-01,-1.091201835694512345e+00,-4.676008819823327389e-01,3.457963048944413531e-01,4.766478987168012993e-01,2.070214133007956814e-01,3.416687237113289477e-01,7.934999225923713984e-02,-3.143947995111674720e-02,-1.710153606243161484e+00,-7.799036247226993623e-01,-1.942627009501796120e+00,3.512151791043207627e-01,-3.965453556851099570e+00,-5.786253448656095699e+00,-6.068876799108326558e+00,-4.060750019051560855e+00,-5.893844359882923989e+00,-6.228481073543935764e+00,1.318360511914585566e-02,1.253325889361885971e-02,-3.308269586397022399e-02,-3.441538369542193783e-03,-1.590677360312339837e-03,5.559359985300871276e-02,-2.988780884798686917e-03,4.905693989270982358e-05,-1.395793125717687336e-04,-2.857259533191023326e-01,-5.927191662666728700e-01,-8.731084029031410676e-01,1.843554768966725876e-01,3.200419728836265132e-01,2.597576477731319278e-01,4.094009210955450451e-01,3.427835851558418412e-01,1.897858294086673947e-03,-1.327494521164466201e-01,1.368770332995590255e-01
6.100000000000136424e-01,5.958333333333276016e+01,-3.064014928214808253e-01,-1.105871942579231604e+00,9.459917262689133111e+01,2.474173954571416700e-01,-1.095137496103447683e+00,-4.679112783477643034e-01,3.524376138316989149e-01,4.953862051151895485e-01,2.025496570987513345e-01,3.370279663934481751e-01,1.522971080272930711e-01,-5.168235988585943852e-02,-1.724305931798681080e+00,-9.853495362539393954e-01,-2.205748446967581877e+00,1.028423513081298202e+00,-3.032897900380324252e+00,-6.102819897906798019e+00,-5.120209073649466980e+00,-3.088156272255893953e+00,-6.230187510134156170e+00,-5.273341089977167329e+00,1.348949612918519565e-02,1.422513093549019128e-02,-3.320766252456400225e-02,-6.541608396201129168e-03,-1.304634943409047109e-03,5.502345626830168479e-02,-3.003531732424339750e-03,8.221843416422345771e-05,-2.677474054378316194e-04,-2.169910163229681332e-01,-6.178199463204824271e-01,-7.422824661588589557e-01,1.885357797287901815e-01,3.313504510775562295e-01,2.560681319742580397e-01,4.047333710446366917e-01,3.468503606097719794e-01,-4.235140994396896508e-03,-1.387134502890937371e-01,1.541230977273445324e-01
6.200000000000045475e-01,5.916666666666646535e+01,-2.237839438089076205e-01,-1.186615361729721707e+00,9.364427287527692556e+01,2.477137399434723719e-01,-1.098658743494139722e+00,-4.681000391640592340e-01,3.573794076784810314e-01,5.141265714441718426e-01,2.058799821396234131e-01,3.460017754296263459e-01,2.031653687954696197e-01,-9.183231726815060947e-02,-1.699971581098443929e+00,-9.364452018425825086e-01,-3.014183368383172024e+00,1.407587589485777668e+00,-2.104908557831389970e+00,-6.425944794153658712e+00,-4.210113272197903989e+00,-2.131607215003735956e+00,-6.580800900507429496e+00,-4.355635720434810843e+00,1.350667650596865284e-02,1.645845293092244865e-02,-3.229827789782200448e-02,-8.640935197293154665e-03,-7.554197449163462842e-04,5.321234016597834598e-02,-2.946297846348046832e-03,9.443903904736634155e-05,-3.572167035513106243e-04,-1.471202173397277990e-01,-6.473745223915061686e-01,-6.158493857395934690e-01,1.926718110352471924e-01,3.431382341442232309e-01,2.528313468757375504e-01,4.009455933695208474e-01,3.558469341729756374e-01,-8.312685237843925323e-03,-1.484344785278468581e-01,1.598121107767015714e-01
6.299999999999954525e-01,5.875000000000018474e+01,-1.398805724795038341e-01,-1.266140814017953531e+00,9.269697278009699914e+01,2.471729786516206062e-01,-1.101521323850527478e+00,-4.683952623620622480e-01,3.623212015252631479e-01,5.328669377731540813e-01,2.092103071804954639e-01,3.549755844658044612e-01,1.729431874713123207e-01,-1.480752093627833998e-01,-1.662948003320731560e+00,-1.141828140907316547e+00,-3.994433368035303022e+00,1.916319312859693813e+00,-1.134414999217175701e+00,-6.697208408477585806e+00,-3.339090759378271933e+00,-1.180003159083155007e+00,-6.880848057349090219e+00,-3.470630612725641218e+00,1.344998935054736791e-02,1.865774618969578968e-02,-3.206955437065129449e-02,-7.282122136960573339e-03,-5.758332712355734850e-06,5.102719435779488194e-02,-2.867103566791552247e-03,6.802403308553626169e-05,-3.042300189674452962e-04,-7.561946042657641254e-02,-6.814653322148911396e-01,-4.929197025420439804e-01,1.967664260202107440e-01,3.553744102672956040e-01,2.500180945097359442e-01,3.979808488971968150e-01,3.648435077361792955e-01,-1.239022948129098189e-02,-1.581555067665999514e-01,1.655011238260586381e-01
6.399999999999863576e-01,5.833333333333389703e+01,-5.469072119910731167e-02,-1.344448344135403595e+00,9.175742754289690595e+01,2.468673506981236554e-01,-1.104019785563895795e+00,-4.688533508862481880e-01,3.672629953720452645e-01,5.516073041021363199e-01,2.125406322213675425e-01,3.639493935019826321e-01,3.540428724404653948e-02,-2.256158143109722736e-01,-1.609131247700672063e+00,-1.436044859467001666e+00,-4.627550433258250884e+00,2.615744786863231752e+00,-1.055585765953588051e-01,-6.894855667505884966e+00,-2.507645996727420723e+00,-2.296374363875539892e-01,-7.108994028788682584e+00,-2.616623214518081664e+00,1.328175866518220734e-02,2.078596921493581703e-02,-3.278689996581255622e-02,-1.475618990785210107e-03,1.015276500667239290e-03,4.836239996548018921e-02,-2.759119895325350298e-03,1.152178542093277174e-05,-6.232193331539667594e-05,-2.044122684935145706e-03,-7.201872289691662044e-01,-3.727140660483174717e-01,2.008222957471227643e-01,3.680300612266749205e-01,2.476010599733952378e-01,3.957860577349974762e-01,3.738400812993828981e-01,-1.646777372473798295e-02,-1.678765350053530725e-01,1.711901368754156771e-01
6.499999999999772626e-01,5.791666666666761643e+01,3.178626173451907372e-02,-1.421537984625746986e+00,9.082577315935658646e+01,2.480855743795167823e-01,-1.108801707687755878e+00,-4.681887051949639167e-01,3.722047892188274365e-01,5.703476704311185586e-01,2.158709572622395934e-01,3.729232025381608029e-01,-6.079798548834690342e-02,-2.920712830440756469e-01,-1.536404819113593057e+00,-1.177928893292308432e+00,-5.077444905274451692e+00,3.503630207260245211e+00,9.323460690535610995e-01,-7.197582642373045125e+00,-1.700302742340558559e+00,7.567152256737714744e-01,-7.438684268734131244e+00,-1.784895884810060007e+00,1.301724404424214540e-02,2.261545813836839808e-02,-3.323611198633128622e-02,2.507773134234959553e-03,1.941259135700282475e-03,4.521701247961676384e-02,-2.629962898320842637e-03,-1.588051761580119395e-05,1.070907141370322307e-04,7.400646076987504873e-02,-7.636455874005467770e-01,-2.545501535245524583e-01,2.048419190144908086e-01,3.810781338254644046e-01,2.455546899842963593e-01,3.943115632725679442e-01,3.828366548625866117e-01,-2.054531796818495626e-02,-1.775975632441061658e-01,1.768791499247727717e-01
6.600000000000250111e-01,5.749999999999895550e+01,-2.685086188764639059e-02,-1.627574360669838738e+00,9.006650656321218662e+01,2.475953550961022542e-01,-1.111512236472177229e+00,-4.682158953138946256e-01,3.771465830656376417e-01,5.890880367602073786e-01,2.192012823031306012e-01,3.818970115743899330e-01,-6.635531644467304591e-02,-3.342187327712432543e-01,-1.422212351591914725e+00,-7.968576634888770993e-01,-5.653712432571940560e+00,4.645967170787027811e+00,1.971677819872817095e+00,-7.655259339456677914e+00,-9.084555156796765285e-01,1.799855403045124813e+00,-7.918634960259095301e+00,-9.652102364512842314e-01,1.243352806925464640e-02,2.417050442044567718e-02,-3.295628684158413702e-02,2.708132165395864786e-03,2.630428105275023701e-03,4.098010489678818868e-02,-2.439240886963413811e-03,-1.331385730708361141e-05,1.169349578989118451e-04,1.528938789286601319e-01,-8.119546084519837503e-01,-1.378311961525218177e-01,2.088276334657740985e-01,3.944933196090064653e-01,2.438550792682470658e-01,3.935109114040715728e-01,3.918332284258413400e-01,-2.462286221165521649e-02,-1.873185914829145204e-01,1.825681629741622292e-01
6.700000000000159162e-01,5.708333333333267490e+01,-9.957627810650841738e-02,-1.849507034957508456e+00,8.933149805503329333e+01,2.485795187766820236e-01,-1.113111806776452273e+00,-4.671204085637774561e-01,3.820883769124197582e-01,6.078284030891896172e-01,2.225316073440026798e-01,3.908708206105681038e-01,-1.064763632613130173e-01,-3.478749062113301038e-01,-1.327697528560116691e+00,-8.811273809830659776e-01,-6.413957767811806931e+00,5.875817796928504144e+00,3.082315574534391089e+00,-8.136075654035662907e+00,-1.279106820799406630e-01,2.893719720190601752e+00,-8.416801772562184425e+00,-1.600478381938046091e-01,1.202891345268169813e-02,2.558124025767167381e-02,-3.302554989143847292e-02,4.298883853130474123e-03,2.964416330034800803e-03,3.746491504035501935e-02,-2.290195556963716111e-03,-1.530524463164026567e-05,1.876752793791199849e-04,2.349449680287272191e-01,-8.652358062710361342e-01,-2.203591256722026159e-02,2.127816259827545742e-01,4.082519423411750115e-01,2.424798642742588828e-01,3.933406439890082540e-01,4.008298019890450536e-01,-2.870040645510221755e-02,-1.970396197216676415e-01,1.882571760235192682e-01
6.800000000000068212e-01,5.666666666666638719e+01,-1.694843308167189866e-01,-2.072493907826546078e+00,8.860175585769907514e+01,2.485261486191841229e-01,-1.115180553510793926e+00,-4.672873069365473531e-01,3.870301707592018747e-01,6.265687694181718559e-01,2.258619323848747307e-01,3.998446296467462191e-01,-1.918022514770584830e-01,-3.242681988023587980e-01,-1.258918503202324235e+00,-1.116578964607498170e+00,-7.271813143721280959e+00,6.948479048537493874e+00,4.273387326501485006e+00,-8.637848522584221200e+00,6.450065777380569187e-01,4.042379273379703264e+00,-8.929603865055117495e+00,6.340772838081744078e-01,1.184076690140303811e-02,2.682330032585661730e-02,-3.356988549012841078e-02,7.659105325013054050e-03,2.822256625922408505e-03,3.481134017441064876e-02,-2.189265767724277081e-03,-1.734716295542508866e-05,3.380133309142932183e-04,3.204556408902101694e-01,-9.236166621500474516e-01,9.329032487050858968e-02,2.167059424086161257e-01,4.223318527377014631e-01,2.414081237441732808e-01,3.937601056333868699e-01,4.098263755522486562e-01,-3.277795069854924637e-02,-2.067606479604207348e-01,1.939461890728763904e-01
6.899999999999977263e-01,5.625000000000009948e+01,-2.365772981300846012e-01,-2.296538779116824802e+00,8.787732413296612322e+01,2.492919331688587259e-01,-1.117380138990086147e+00,-4.654769800510489830e-01,3.919719646059839913e-01,6.453091357471540945e-01,2.291922574257468093e-01,4.088184386829243899e-01,-2.365930375171590438e-01,-3.740687070606524833e-01,-1.209503676812884843e+00,-1.240388789723626761e+00,-8.019932459484541809e+00,7.785614748357470027e+00,5.422242994782168424e+00,-9.223008201346022616e+00,1.417142843589448198e+00,5.169608049278613393e+00,-9.532768386358451806e+00,1.421803896335156914e+00,1.183034972115739290e-02,2.789571823259925226e-02,-3.379816691458732009e-02,9.342497271735332107e-03,3.545836133048940915e-03,3.270536330844880241e-02,-2.115013807025521286e-03,-9.621159126570515290e-06,4.166969685266777319e-04,4.096942799140476099e-01,-9.872294307203015595e-01,2.085432439774612678e-01,2.206024966439474322e-01,4.367123299884392851e-01,2.406202856948472246e-01,3.947312629321495514e-01,4.188229491154523143e-01,-3.685549494199627518e-02,-2.164816761991738558e-01,1.996352021222334849e-01
6.999999999999886313e-01,5.583333333333381177e+01,-3.008572162848473508e-01,-2.521645549095440142e+00,8.715823954460360312e+01,2.502624161461793895e-01,-1.121256734916084907e+00,-4.631830675273040376e-01,3.969137584527661633e-01,6.640495020761363332e-01,2.325225824666188879e-01,4.177922477191025052e-01,-2.257730477069345154e-01,-5.245777863391893892e-01,-1.186654914662878646e+00,-1.096500161539712082e+00,-8.516816346084649325e+00,8.517948740087170734e+00,6.509259303530845031e+00,-9.923240487180578384e+00,2.195608891084463554e+00,6.260444303114321762e+00,-1.023310254368063710e+01,2.205168073361909897e+00,1.217035186496831685e-02,2.592094129377875422e-02,-3.307871787471116515e-02,8.814285295903176790e-03,5.495119656478480649e-03,3.128978227464219997e-02,-2.090701090314857520e-03,1.284624388181877145e-06,3.972090502154742870e-04,5.029047444189371774e-01,-1.056210084555274431e+00,3.240664806918327479e-01,2.244730791561179717e-01,4.513739896307608079e-01,2.400980403993395740e-01,3.962185353692001533e-01,4.278195226786559724e-01,-4.093303918544327624e-02,-2.262027044379268936e-01,2.053242151715906072e-01
7.099999999999795364e-01,5.541666666666751695e+01,-3.590409775923925628e-01,-2.865633010009113413e+00,8.651897100834744947e+01,2.500569991372408873e-01,-1.122871847601242701e+00,-4.619955641088075993e-01,4.157187713474880808e-01,6.671827084035050204e-01,2.417123817948283737e-01,4.229895954066419383e-01,-2.146181367044884269e-01,-6.529100616488844322e-01,-1.156533666459044873e+00,-3.688221174965210514e-01,-8.733121474322214084e+00,9.163175789785386272e+00,7.551293528348720585e+00,-1.064640016657087962e+01,2.941131353459863540e+00,7.307224601532381847e+00,-1.091793005855965859e+01,2.952713103999722755e+00,1.243125367402244351e-02,2.028567135292031615e-02,-3.178447223686063638e-02,8.274574361723371560e-03,7.212471033154772143e-03,2.971751340465729474e-02,-2.050825739773695471e-03,1.062284758965321392e-05,3.745750318082315426e-04,5.923557514837141103e-01,-1.123396779073906115e+00,4.349512434866000810e-01,2.289514800609113720e-01,4.652921445608788065e-01,2.402021541431229035e-01,3.979450817449143862e-01,4.369008642381158047e-01,-3.509336172210170135e-02,-2.163705753339152382e-01,2.090997512747613807e-01
7.200000000000272848e-01,5.499999999999886313e+01,-4.077689613722594864e-01,-3.402103372188270303e+00,8.600591822819934862e+01,2.511625341934153322e-01,-1.124473765997777486e+00,-4.596355044216736685e-01,4.387045832186820538e-01,6.656091869259658234e-01,2.526692515284429397e-01,4.270480571193103758e-01,-2.025890451171978024e-01,-7.233584767787555325e-01,-1.107430442020041150e+00,5.943871757024816738e-01,-8.598456049320798655e+00,9.559457946273465012e+00,8.540827783639866055e+00,-1.134320442264783146e+01,3.640089340602857604e+00,8.305046402502716418e+00,-1.156507004465422384e+01,3.655807591785067867e+00,1.240317258548257265e-02,1.419875753911510781e-02,-3.038205130426709089e-02,7.703379425806436767e-03,8.241945094630420340e-03,2.772883971728134014e-02,-1.968080158966782102e-03,1.841405463101413939e-05,3.480051685295804001e-04,6.752926903091951427e-01,-1.186358179262072099e+00,5.397141536439986620e-01,2.341891293756295234e-01,4.782111945725524560e-01,2.410061948414066180e-01,3.998220203713597209e-01,4.460077696981002982e-01,-2.626289905820816672e-02,-2.006417046490756029e-01,2.122982307484472808e-01
7.300000000000181899e-01,5.458333333333257542e+01,-4.518083543287867987e-01,-3.939215575704391625e+00,8.549775800470575859e+01,2.514875812177803094e-01,-1.125889019982044603e+00,-4.576139684813795294e-01,4.616903950897454090e-01,6.640356654484356191e-01,2.636261212619952499e-01,4.311065188319557762e-01,-1.702325095022750590e-01,-8.168112393832629436e-01,-1.007614609332502242e+00,1.033357759621422511e+00,-8.466875574221017331e+00,9.642891006415920785e+00,9.427518234285164667e+00,-1.200909089730977186e+01,4.288291433724406687e+00,9.215560370287882108e+00,-1.218925775151743451e+01,4.315540745974085546e+00,1.183195973911917859e-02,8.605444098778447515e-03,-2.881237835965622801e-02,6.376316745830582118e-03,9.595630149436215964e-03,2.451574380497731007e-02,-1.797814018853646952e-03,2.208582905239330480e-05,2.858299552023420590e-04,7.513934168787816947e-01,-1.244861768750877618e+00,6.384996126500519509e-01,2.401370608812004870e-01,4.901955749542424856e-01,2.424650220946333312e-01,4.018396519988572946e-01,4.551146751580329997e-01,-1.743243639436484194e-02,-1.849128339643253682e-01,2.154967102221149455e-01
7.400000000000090949e-01,5.416666666666628771e+01,-4.911624193735931176e-01,-4.477018027445089032e+00,8.499444450860266898e+01,2.518334518680076517e-01,-1.127522230946761184e+00,-4.552929283345826805e-01,4.846762069608087087e-01,6.624621439709054149e-01,2.745829909955475601e-01,4.351649805446011765e-01,-1.229127164781618764e-01,-9.271977577679048066e-01,-8.704686622398085660e-01,1.080933267440211454e+00,-8.784193481732790687e+00,9.628624215413527310e+00,1.022362816462803714e+01,-1.263109428179801874e+01,4.890710490687267153e+00,1.004621032188620688e+01,-1.277634000285553562e+01,4.934113221821838202e+00,1.086707123423539742e-02,3.482015339902167807e-03,-2.712854546569701264e-02,4.530253786156073111e-03,1.117655233090201344e-02,2.051665172495871492e-02,-1.573740176671883624e-03,2.039238283384743833e-05,2.004953378303182961e-04,8.204104115351590343e-01,-1.298682901919413490e+00,7.314991694445727166e-01,2.467494663376578190e-01,5.013055653683859969e-01,2.445364067437140465e-01,4.039889029115842356e-01,4.642215806179657012e-01,-8.601973730521544903e-03,-1.691839632795751613e-01,2.186951896957827213e-01
7.500000000000000000e-01,5.375000000000000000e+01,-5.258319470776842142e-01,-5.015559595659021319e+00,8.449592964282996377e+01,2.540539443771298589e-01,-1.129161783710485478e+00,-4.498962511029699352e-01,5.076620188318720084e-01,6.608886224933752107e-01,2.855398607290998148e-01,4.392234422572465768e-01,-7.545735958067473215e-02,-1.057464266122460250e+00,-7.384532041587357210e-01,1.328493553641806546e+00,-9.257356256852038001e+00,9.746965795742447369e+00,1.092521122499782749e+01,-1.319013999463371434e+01,5.454311483320336329e+00,1.078045132919639748e+01,-1.330682265973176648e+01,5.512026135972700303e+00,9.990488872374319110e-03,-1.219817401817711693e-03,-2.548959625016112771e-02,2.734164822859936738e-03,1.298730659250768582e-02,1.681466544395052512e-02,-1.374649287920567736e-03,1.503993430053804645e-05,1.189286091978470993e-04,8.821595982482642873e-01,-1.347604754769424318e+00,8.189404661703116872e-01,2.539834918165408961e-01,5.115975578602480756e-01,2.471808431153489083e-01,4.062612845850080978e-01,4.733284860778984027e-01,2.284889333217798857e-04,-1.534550925948249822e-01,2.218936691694504970e-01
7.599999999999909051e-01,5.333333333333371939e+01,-5.361345013890951305e-01,-5.664313461095523472e+00,8.411357479256123781e+01,2.554527630759181878e-01,-1.130427953714347344e+00,-4.463262893425586353e-01,5.306478307029354191e-01,6.593151010158448955e-01,2.964967304626521249e-01,4.432819039698919772e-01,-2.786922951504443302e-02,-1.207201516830900045e+00,-6.114626193218588579e-01,1.684110082571827594e+00,-9.155492110024121999e+00,1.000359640285890173e+01,1.153686061340980551e+01,-1.368480406392943216e+01,5.981510728783485220e+00,1.142251391909908342e+01,-1.377895412768448402e+01,6.051767702606760224e+00,9.233483363087803542e-03,-5.527337405976934584e-03,-2.390034313383200201e-02,9.919891450776096263e-04,1.502019941490038979e-02,1.340579035308664402e-02,-1.204189478962903667e-03,6.407655976957220968e-06,4.223398150282054033e-05,9.365106390732255148e-01,-1.391418227708763000e+00,9.010779361664158493e-01,2.617990471684387699e-01,5.211243075820746196e-01,2.503613733762175553e-01,4.086488559451361691e-01,4.824353915378311042e-01,9.058951597165187941e-03,-1.377262219100746643e-01,2.250921486431181062e-01
7.699999999999818101e-01,5.291666666666742458e+01,-5.065867987362989711e-01,-6.517821321631723563e+00,8.394461728557413949e+01,2.562322543647975737e-01,-1.130785097543580253e+00,-4.434217438402643929e-01,5.536336425739987188e-01,6.577415795383146913e-01,3.074536001962043796e-01,4.473403656825374330e-01,1.121506942071914120e-02,-1.342292898168472526e+00,-4.771304690680253646e-01,1.751636398933260397e+00,-8.263528822104142080e+00,1.037541241937450742e+01,1.208486055469194476e+01,-1.411506398035302645e+01,6.470736966142826674e+00,1.199695016704534112e+01,-1.418801470369311346e+01,6.554103801421500286e+00,8.408353955724822554e-03,-9.488094289732823539e-03,-2.245511581446305721e-02,-3.918903390708046268e-04,1.684515818973924758e-02,1.002497206423646862e-02,-1.038083470747209634e-03,-2.890310342477635653e-06,-1.626920862522759380e-05,9.833785184634641352e-01,-1.429921808812330219e+00,9.781850085717189724e-01,2.701586277785465451e-01,5.299351673472879609e-01,2.540434232150972638e-01,4.111441880617796585e-01,4.915422969977638057e-01,1.788941426100854049e-02,-1.219973512253245129e-01,2.282906281167857432e-01
7.799999999999727152e-01,5.250000000000113687e+01,-4.746467201032263938e-01,-7.371905124786423791e+00,8.378149250698123751e+01,2.575875563446747285e-01,-1.131074343913243574e+00,-4.400216874639523157e-01,5.766194544450620185e-01,6.561680580607844870e-01,3.184104699297566898e-01,4.513988273951828334e-01,3.594343838414920667e-02,-1.452659532287856159e+00,-3.304044933249990490e-01,1.572208048006376258e+00,-7.235658605339142291e+00,1.070511086661915634e+01,1.257737290232082294e+01,-1.448082699647228999e+01,6.921337389657259642e+00,1.251049765103967992e+01,-1.453219636244039314e+01,7.019366912625637944e+00,7.441079492482824236e-03,-1.314786696359166937e-02,-2.121497948277665385e-02,-1.232370844372796502e-03,1.833219785299123814e-02,6.577974235190237398e-03,-8.677076978207758865e-04,-1.016319021317340408e-05,-4.971101592827308334e-05,1.022716254917601653e+00,-1.462921405096579308e+00,1.050547606486683438e+00,2.790271478177432929e-01,5.380763070575755869e-01,2.581946481223363343e-01,4.137403311188556088e-01,5.006492024576965072e-01,2.671987692485183752e-02,-1.062684805405743060e-01,2.314891075904534634e-01
7.900000000000204636e-01,5.208333333333247595e+01,-4.402797463280596624e-01,-8.226758360597816733e+00,8.362417324704689747e+01,2.592960604050353890e-01,-1.131907108671636575e+00,-4.357471126997593536e-01,5.996052663162559915e-01,6.545945365832452900e-01,3.293673396633712835e-01,4.554572891078512709e-01,6.175740108225334646e-02,-1.540967933682563684e+00,-1.927220207607891478e-01,1.396819990374787546e+00,-6.556210928847815644e+00,1.088125834137761316e+01,1.298741898091367197e+01,-1.478621296983924260e+01,7.342166894872248939e+00,1.294061614193442367e+01,-1.481597733936934880e+01,7.452383490098146268e+00,6.560670228743402041e-03,-1.649175321668907429e-02,-2.001846648703263162e-02,-2.076830984689230324e-03,1.950604872329279871e-02,3.529653965296329632e-03,-7.233396818479775284e-04,-1.884303517224312127e-05,-8.112755260242076997e-05,1.054508597469334230e+00,-1.490230148412085676e+00,1.118458754025639434e+00,2.883717842478167315e-01,5.455909189784640123e-01,2.627847895832323699e-01,4.164307835148752801e-01,5.097561079176810006e-01,3.555033958874534439e-02,-9.053960985573464293e-02,2.346875870641394191e-01
8.000000000000113687e-01,5.166666666666618823e+01,-4.034478314574859170e-01,-9.082576685937608474e+00,8.347263598237017845e+01,2.608271750501555131e-01,-1.132324694949212951e+00,-4.311251462041176818e-01,6.225910781873192912e-01,6.530210151057150858e-01,3.403242093969235937e-01,4.595157508204966712e-01,9.116505338419084170e-02,-1.556255978468723766e+00,-8.497666217143634571e-02,1.251842925732251643e+00,-5.978663572595768194e+00,1.084306538559771305e+01,1.329121166629383310e+01,-1.503516989772169232e+01,7.747007612502725848e+00,1.326410301434327366e+01,-1.503902201328834209e+01,7.855135690385294467e+00,5.808579531031062351e-03,-1.930077146446887784e-02,-1.749110744638369963e-02,-3.006145154111401156e-03,1.971773080921690458e-02,1.292443299676110423e-03,-6.112902398230160572e-04,-2.961963844257508839e-05,-1.133554518878059032e-04,1.078766582115231909e+00,-1.511668181720124737e+00,1.182214132306348198e+00,2.981618308872373557e-01,5.525194097760536271e-01,2.677855405459164118e-01,4.192094629562290176e-01,5.188630133776136466e-01,4.438080225258864142e-02,-7.481073917098443604e-02,2.378860665378070283e-01
8.100000000000022737e-01,5.124999999999990052e+01,-3.969911763663697135e-01,-1.003246632188080767e+01,8.355761935386756534e+01,2.639544575383273584e-01,-1.132700282057446328e+00,-4.229486531670307303e-01,6.375140069227075434e-01,6.505103618713747871e-01,3.596459853339177282e-01,4.700799569433098957e-01,9.168897256921594574e-02,-1.610096709612899968e+00,1.922679339070512000e-02,9.619139631998547824e-01,-5.083062154872009408e+00,1.042855861371374360e+01,1.352637874847544808e+01,-1.522111197391333448e+01,8.081216400993136872e+00,1.350514467758563342e+01,-1.520920328866865034e+01,8.172558336645144195e+00,5.210058664101797909e-03,-2.155236320152572466e-02,-1.294934640462499197e-02,-2.962607583765821621e-03,2.038690186369820911e-02,-7.700133040579704808e-04,-5.209781466094172723e-04,-3.095158535086882525e-05,-1.075111535813431127e-04,1.096483195399158062e+00,-1.528124891760146209e+00,1.234291323867240830e+00,3.080009221412773335e-01,5.588391417163031116e-01,2.737098975866312234e-01,4.224902544863867737e-01,5.294375777678275163e-01,4.871880833036246194e-02,-6.171516327902970556e-02,2.291492132584273811e-01
8.199999999999931788e-01,5.083333333333361992e+01,-3.996344434074936558e-01,-1.100288525571501630e+01,8.369926083246592441e+01,2.660290194399088093e-01,-1.132795746725105968e+00,-4.181021505682106509e-01,6.463469609112522107e-01,6.472918838258093777e-01,3.852858570043444786e-01,4.855580156546640547e-01,5.975932795686136889e-02,-1.707254973889510641e+00,1.194505910813219995e-01,4.367771510743332919e-01,-3.641689922909951083e+00,9.688264397317794874e+00,1.371556064009191367e+01,-1.535958458015600314e+01,8.298598176113458180e+00,1.368583564268373998e+01,-1.533961884159290534e+01,8.368287846497731053e+00,4.771356151796144265e-03,-2.355319470770830120e-02,-7.853145437893362807e-03,-1.890317827195050386e-03,2.156942722482713126e-02,-2.666147956654019244e-03,-4.500332527990111276e-04,-2.035802463648142362e-05,-6.582348402391767657e-05,1.108766486822893249e+00,-1.540264233521392967e+00,1.269156430365523391e+00,3.176082130662905567e-01,5.645437257371659356e-01,2.809057676074693810e-01,4.265576845514348348e-01,5.411206793490175304e-01,4.966361786788120458e-02,-5.060854078243837151e-02,2.113974860390265831e-01
8.299999999999840838e-01,5.041666666666733221e+01,-4.050198043522517666e-01,-1.197479244528479114e+01,8.385001752283237408e+01,2.681191485645152972e-01,-1.132917785327321569e+00,-4.131474459521989884e-01,6.551799148997968780e-01,6.440734057802439683e-01,4.109257286747712845e-01,5.010360743660181582e-01,4.051012339730915984e-02,-1.742095008179789684e+00,2.180231158789709411e-01,-1.874736391294820059e-01,-1.947501897314479091e+00,8.908633294357525045e+00,1.383981270499829108e+01,-1.546233195785715075e+01,8.407388792558458945e+00,1.380953610194904790e+01,-1.542820501194632854e+01,8.455278465452227721e+00,4.104050502330982078e-03,-2.534771767228131967e-02,-2.838874081653328541e-03,-1.253525022633283394e-03,2.193870999907404293e-02,-4.417831729472505506e-03,-3.600458775605941517e-04,-1.359900301190434972e-05,-4.176278417946684271e-05,1.116146047895003601e+00,-1.547921107580958688e+00,1.287326369241292845e+00,3.269986531643666594e-01,5.696728345826147510e-01,2.892911469027713567e-01,4.313610204605677900e-01,5.528037809302076555e-01,5.060842740539989171e-02,-3.950191828584698195e-02,1.936457588196257573e-01
8.399999999999749889e-01,5.000000000000104450e+01,-4.131805341216870375e-01,-1.294848456438453610e+01,8.401005849625713040e+01,2.700992092338211914e-01,-1.132811616290984036e+00,-4.081390982279716750e-01,6.640128688883415453e-01,6.408549277346786699e-01,4.365656003451980904e-01,5.165141330773723727e-01,3.632761238002150256e-02,-1.702889530690458120e+00,3.146336249634902327e-01,-7.616708131285373495e-01,-5.424458048398768106e-01,8.253277720658335426e+00,1.389140619094143680e+01,-1.552553646679916000e+01,8.412602741845892851e+00,1.386950040863816902e+01,-1.546984511477498359e+01,8.438332465938323423e+00,3.160506129107278246e-03,-2.693312481098479941e-02,2.116017937779221449e-03,-1.098981511603950570e-03,2.136449802597418374e-02,-6.015468090609380619e-03,-2.492629094731500425e-04,-1.177191768741111443e-05,-3.493316720760733079e-05,1.119180292532573340e+00,-1.550915440858430028e+00,1.289241334887428092e+00,3.361862277991332082e-01,5.742635823817515695e-01,2.987893204330941410e-01,4.368528014271677029e-01,5.644868825113976696e-01,5.155323694291857883e-02,-2.839529578925570341e-02,1.758940316002248760e-01
8.500000000000227374e-01,4.958333333333238357e+01,-4.241552846517903097e-01,-1.392426472359196588e+01,8.417956369293018781e+01,2.732644603426447882e-01,-1.132646979724424963e+00,-4.018535673920532458e-01,6.728458228769365057e-01,6.376364496890949418e-01,4.622054720157706131e-01,5.319921917888144058e-01,2.679722207586291913e-02,-1.674815609340626565e+00,4.018315093730988607e-01,-1.253940574635485028e+00,7.093982627973873800e-01,7.621507951658735180e+00,1.389047634696849265e+01,-1.554006530436561562e+01,8.313742157646489161e+00,1.387405658432398070e+01,-1.546541453159350787e+01,8.317296484997388717e+00,2.313194464228536008e-03,-2.838973844721316003e-02,6.829838416419920649e-03,-7.922199313561651898e-04,2.092440320347620925e-02,-7.351182490392216794e-03,-1.548507522379078652e-04,-8.226522105521972156e-06,-2.396113149912394721e-05,1.118446219065154290e+00,-1.549055314207707701e+00,1.275281243435285372e+00,3.451840203759542480e-01,5.783506896615934201e-01,3.093285207431911155e-01,4.429886275538441054e-01,5.761699840926541860e-01,5.249804648044267830e-02,-1.728867329260111441e-02,1.581423043807231865e-01
8.600000000000136424e-01,4.916666666666609586e+01,-4.730319878314511728e-01,-1.487434333839858347e+01,8.440990477376426782e+01,2.786010631169871243e-01,-1.131749388205180562e+00,-3.913830488858991985e-01,6.816787768654811730e-01,6.344179716435295324e-01,4.878453436861973636e-01,5.474702505001686204e-01,4.474007914627067123e-03,-1.673369820249190676e+00,4.665131694907247994e-01,-1.729584775733939317e+00,2.396832325386728080e+00,7.018766617004683184e+00,1.384180479286796128e+01,-1.550554106264828746e+01,8.113780546942845007e+00,1.382379793045193139e+01,-1.541612401146623945e+01,8.094163515717017532e+00,1.727025556862360998e-03,-2.975026488440226172e-02,1.125293265899294029e-02,-1.292241927621238574e-04,2.080762993987779821e-02,-8.229653015107599168e-03,-9.120402506074785920e-05,-1.277930273120948781e-06,-3.709225236545385515e-06,1.114530914015130936e+00,-1.542139675163993529e+00,1.245779454706111178e+00,3.540042705119313404e-01,5.819666377176909711e-01,3.208416088773624608e-01,4.497269624264422783e-01,5.878530856738442001e-01,5.344285601796144869e-02,-6.182050796009808113e-03,1.403905771613223608e-01
8.700000000000045475e-01,4.874999999999980815e+01,-6.109248222338311551e-01,-1.575889335372968070e+01,8.477370809609027447e+01,2.815958037977618345e-01,-1.131524174630601953e+00,-3.854986622347972847e-01,6.905117308540258403e-01,6.311994935979641230e-01,5.134852153566241695e-01,5.629483092115227238e-01,-2.635192623877013161e-03,-1.669761996832794582e+00,5.339002244434740696e-01,-2.231919818449622728e+00,4.247764441554233272e+00,6.437013563076895650e+00,1.376063358769284761e+01,-1.541316346983155050e+01,7.819196291370023033e+00,1.374722147719472076e+01,-1.531049025768971106e+01,7.776778594773404052e+00,1.080438980162746511e-03,-3.092577575371386125e-02,1.563440418091693873e-02,7.435377760707635676e-05,2.066440217801900070e-02,-9.085877478595672657e-03,-2.638151675726924241e-05,6.876231815304718638e-07,2.020315086811874982e-06,1.108024550187491242e+00,-1.529960683244096620e+00,1.201034171908550885e+00,3.626584284543593606e-01,5.851418130289136599e-01,3.332657758735926290e-01,4.570289484393929014e-01,5.995361872550342142e-01,5.438766555548013582e-02,4.924571700581581446e-03,1.226388499419215350e-01
8.799999999999954525e-01,4.833333333333352755e+01,-7.555872688576449336e-01,-1.664467380480446579e+01,8.514973184042833054e+01,2.848814051806080050e-01,-1.131273113429361654e+00,-3.793784194474808524e-01,6.993446848425705076e-01,6.279810155523988247e-01,5.391250870270509754e-01,5.784263679228768273e-01,5.366515724079649191e-03,-1.664006791107955019e+00,6.039743398832972954e-01,-2.635422285117764662e+00,6.061523665106625991e+00,5.745189726398963970e+00,1.365466556849541746e+01,-1.525865159880608957e+01,7.432361937834516041e+00,1.365144593637998938e+01,-1.514414036641034755e+01,7.367504541368452564e+00,3.820606819622618736e-04,-3.193009695816353966e-02,1.996770757239968441e-02,-1.479229592010768406e-04,2.049789353986742821e-02,-9.915498097584220238e-03,3.823463569311083554e-05,-1.254268227211625512e-06,-3.795355978278051576e-06,1.099514664159302546e+00,-1.512305730352528466e+00,1.141317864511124380e+00,3.711572059895629772e-01,5.879046423584943781e-01,3.465422635091934822e-01,4.648582340312641947e-01,6.112192888362242282e-01,5.533247509299876743e-02,1.603119419717291549e-02,1.048871227225207092e-01
8.899999999999863576e-01,4.791666666666723273e+01,-9.072173325172632197e-01,-1.753191458409992975e+01,8.553828359246278978e+01,2.888038446739281118e-01,-1.130405888638588818e+00,-3.729555306194360931e-01,7.081776388311151749e-01,6.247625375068334153e-01,5.647649586974777813e-01,5.939044266342310419e-01,-9.937552744560120693e-03,-1.604920852504815976e+00,6.465099726585153972e-01,-2.941897838619517813e+00,8.036490761241310565e+00,5.057497591968593831e+00,1.348986389460360868e+01,-1.506299028964155440e+01,6.950834631228372196e+00,1.348890230422806269e+01,-1.493057632786413258e+01,6.862585287746283846e+00,-2.781714420273546234e-04,-3.289000362075399087e-02,2.395650683005678613e-02,2.676287027801396994e-04,1.967891168143421146e-02,-1.024639277936241835e-02,9.233438790174388873e-05,2.033878945987822829e-06,6.468256884887115663e-06,1.089581526694364033e+00,-1.488959174445588340e+00,1.066885011861064658e+00,3.795106240684711918e-01,5.902817191419993392e-01,3.606161030564122294e-01,4.731808120624200753e-01,6.229023904174142423e-01,5.627728463051751007e-02,2.713781669376424954e-02,8.713539550311982795e-02
8.999999999999772626e-01,4.750000000000095213e+01,-1.066026631988750362e+00,-1.842085104034190834e+01,8.593968202251774358e+01,2.941003847562618234e-01,-1.129514065469471973e+00,-3.643278102918252603e-01,7.170105928196599532e-01,6.215440594612680059e-01,5.904048303679045873e-01,6.093824853455851454e-01,-5.739937799197651624e-02,-1.472248148258534561e+00,6.510474801382790666e-01,-3.485703351691252561e+00,9.569601912675180344e+00,4.556259840310691089e+00,1.325460300090093391e+01,-1.482327092355998310e+01,6.374487266679375708e+00,1.324543200708875190e+01,-1.467242235692302366e+01,6.264383266338390932e+00,-8.588529076187989206e-04,-3.301585044821839232e-02,2.709513807448477724e-02,1.510668186403206405e-03,1.797143901319414247e-02,-9.961323499679692814e-03,1.324682693843011406e-04,1.000683881689318168e-05,3.430801418612512498e-05,1.078794444431926181e+00,-1.459703820606963909e+00,9.779784236236790385e-01,3.877280573606745606e-01,5.922979217241566285e-01,3.754358708864777849e-01,4.819648686161899787e-01,6.345854919986044784e-01,5.722209416803625270e-02,3.824443919035569461e-02,6.938366828371911321e-02
9.100000000000250111e-01,4.708333333333228410e+01,-1.318305971498298756e+00,-1.910423613785232178e+01,8.638566560907295866e+01,3.008722199187107704e-01,-1.128280927167080616e+00,-3.532488294650126814e-01,7.246963072927464777e-01,6.232075657688684878e-01,6.120962569988683821e-01,6.259746655753994915e-01,-1.021693028425872951e-01,-1.376668203889169328e+00,6.716266846883836017e-01,-4.143745786200639714e+00,1.039186237255610301e+01,4.127371273150823860e+00,1.306288886852610709e+01,-1.454359277892312896e+01,5.728423949388748326e+00,1.304703721741426570e+01,-1.439224591034539458e+01,5.603479945439814536e+00,-1.436562561543008008e-03,-3.182257518298527849e-02,2.939840676556653917e-02,2.628836209369296920e-03,1.673750010911957339e-02,-9.910682137014174831e-03,1.705668623744775259e-04,1.470348999059205086e-05,5.608550915539608334e-05,1.069154991668396892e+00,-1.428274595748638243e+00,8.784123660326286220e-01,3.957659657578407875e-01,5.942913778601995878e-01,3.906988127104473185e-01,4.912524946070739862e-01,6.464936989089706820e-01,5.768357505020454967e-02,4.380516647367344030e-02,5.491647524367360145e-02
9.200000000000159162e-01,4.666666666666600349e+01,-1.603718996490429038e+00,-1.972365370698413045e+01,8.685220605567667462e+01,3.050930069415573320e-01,-1.127687891543717180e+00,-3.467241851603968250e-01,7.317197352316017200e-01,6.276893785011612437e-01,6.315082973765652197e-01,6.432100137479005442e-01,-1.429861011902991974e-01,-1.335559952562166197e+00,7.157635431192324038e-01,-4.361259989359401068e+00,1.095193362857841635e+01,3.610309133877181331e+00,1.293970619503814490e+01,-1.425442093493954587e+01,5.029330787427678473e+00,1.291916418919582554e+01,-1.411351317368425384e+01,4.893770849931920353e+00,-2.032216396991473866e-03,-3.021303481782169550e-02,3.138223857117165838e-02,3.598486939230619193e-03,1.617862186982460190e-02,-1.018343052607370049e-02,2.091587113410693058e-04,1.630167674969696027e-05,7.220073694441729410e-05,1.061695184774328560e+00,-1.396859577732212365e+00,7.703854652002060099e-01,4.036057293729694573e-01,5.964453156154512214e-01,4.062293424095476668e-01,5.010526931635814751e-01,6.585318562143072096e-01,5.786603655088790044e-02,4.616432017955257594e-02,4.234540130414865544e-02
9.300000000000068212e-01,4.624999999999971578e+01,-1.895866640686533211e+00,-2.034264208068809410e+01,8.732949815649352843e+01,3.102249643363930165e-01,-1.126587908178204200e+00,-3.392469488853698811e-01,7.387431631704569623e-01,6.321711912334541106e-01,6.509203377542619462e-01,6.604453619204017079e-01,-1.860375633954780006e-01,-1.246572999054946340e+00,7.631538799853636590e-01,-4.404203086783036625e+00,1.174848824977011930e+01,3.127574233208830101e+00,1.281930252344949572e+01,-1.397436562643025582e+01,4.281976324068079265e+00,1.279495480545987718e+01,-1.383750403863884237e+01,4.136206172781194290e+00,-2.715570289434708455e-03,-2.868600569724552574e-02,3.329708277321103554e-02,4.581510812673036948e-03,1.506711260466151760e-02,-1.043921426830815222e-02,2.494236238358467231e-04,1.576103618126606598e-05,8.654800441249447065e-05,1.056459193626165805e+00,-1.365343832063926843e+00,6.539460124947256148e-01,4.112601271604542919e-01,5.987493850464417067e-01,4.220102024349426384e-01,5.113324069355654755e-01,6.705700135196437373e-01,5.804849805157130671e-02,4.852347388543154505e-02,2.977432736462370944e-02
9.399999999999977263e-01,4.583333333333343518e+01,-2.194932004801906089e+00,-2.096126883819718145e+01,8.781772683317116446e+01,3.144183710800562692e-01,-1.125679025961240143e+00,-3.324371790433282570e-01,7.457665911093122046e-01,6.366530039657468665e-01,6.703323781319587837e-01,6.776807100929027605e-01,-2.351370298583012886e-01,-1.028004769299455168e+00,8.193495910302531771e-01,-4.786330268799871668e+00,1.287792125660865317e+01,2.726603958731322663e+00,1.265545415072754665e+01,-1.371545090353586716e+01,3.488459135488194196e+00,1.262806126080260150e+01,-1.356679746936948483e+01,3.333135556639630792e+00,-3.570811709378425049e-03,-2.723420523425663931e-02,3.512346620026862709e-02,5.669006781427629073e-03,1.245939661024329272e-02,-1.070069813579429402e-02,2.940607983073436921e-04,1.319557113598596957e-05,1.009455471493848173e-04,1.053478170897377941e+00,-1.333619435955212484e+00,5.291554088472572026e-01,4.187411139213922384e-01,6.011939037087602467e-01,4.380252482291515648e-01,5.220607105410566273e-01,6.826081708249801538e-01,5.823095955225465747e-02,5.088262759131068069e-02,1.720325342509876343e-02
9.499999999999886313e-01,4.541666666666714036e+01,-2.501104787086146253e+00,-2.157960210602204754e+01,8.831707730063364181e+01,3.221822664622889798e-01,-1.124298841024237383e+00,-3.223174707499377734e-01,7.527900190481674469e-01,6.411348166980396224e-01,6.897444185096555103e-01,6.949160582654039242e-01,-2.815164612101413444e-01,-7.948898103855622788e-01,8.340557949605901245e-01,-5.399632195442046090e+00,1.406828385601209597e+01,2.258996182905342653e+00,1.247348854561477793e+01,-1.344905148447740473e+01,2.652904455343595203e+00,1.244031337251983871e+01,-1.328644697458204327e+01,2.484848990200129393e+00,-4.043951362108087061e-03,-2.583321538640460935e-02,3.691792437996435639e-02,6.647529415861826857e-03,9.693124075601945722e-03,-1.041437722993264828e-02,3.084972721257902423e-04,7.955864537550517979e-06,1.117084690958158703e-04,1.052772503025419137e+00,-1.301584717877213304e+00,3.960883597049269511e-01,4.260598734557140554e-01,6.037698136080286160e-01,4.542593764458808803e-01,5.332086730692078280e-01,6.946463281303165704e-01,5.841342105293811926e-02,5.324178129718970531e-02,4.632179485573817423e-03
9.599999999999795364e-01,4.500000000000085265e+01,-2.960365924000380566e+00,-2.182239979481638770e+01,8.885052310671474629e+01,3.309115700912428348e-01,-1.122108148427819474e+00,-3.107953269421268594e-01,7.598134469870225782e-01,6.456166294303323783e-01,7.091564588873523478e-01,7.121514064379050879e-01,-3.262561983717812142e-01,-5.530057781640735914e-01,8.237512541783679199e-01,-5.961788488790312535e+00,1.500387973103444317e+01,1.752056675354234150e+00,1.230043566983788850e+01,-1.317359867147042607e+01,1.774163357661452611e+00,1.225932616893949323e+01,-1.299569574438241482e+01,1.591829093885427593e+00,-4.223877929074190858e-03,-2.447764266937484112e-02,3.867372345698230629e-02,7.548748454636299184e-03,6.843625340855029847e-03,-9.829207470884379627e-03,3.019674286503102787e-04,3.868328545173025624e-07,1.198573787978783058e-04,1.054353737707200978e+00,-1.269143590836663726e+00,2.548328697856714342e-01,4.332268682863740783e-01,6.064686409272355139e-01,4.706984577991756846e-01,5.447492294508384791e-01,7.066844854356530981e-01,5.859588255362147002e-02,5.560093500306872993e-02,-7.938894453951184094e-03
9.700000000000272848e-01,4.458333333333219173e+01,-3.475596342321008780e+00,-2.192432513139904415e+01,8.939815237826798011e+01,3.360444100470508233e-01,-1.120463502604742700e+00,-3.036283067201601682e-01,7.668368749259177886e-01,6.500984421626506693e-01,7.285684992651595415e-01,7.293867546105041733e-01,-4.048648526879969345e-01,-3.533986769659437366e-01,8.321754078842373836e-01,-6.243737151512100070e+00,1.532944933568462176e+01,1.362287613209797188e+00,1.219298506972883800e+01,-1.291220983607581552e+01,8.463889994268214423e-01,1.213492112815717228e+01,-1.272383688865825846e+01,6.527737912173227075e-01,-4.326757270612686425e-03,-2.316543978749708785e-02,4.020455142842695173e-02,9.182723180576805519e-03,4.521437491876479330e-03,-9.493424263410618277e-03,2.923606821244816001e-04,-1.015379729772799763e-05,1.379255201264727941e-04,1.058226230745819674e+00,-1.236204968510359770e+00,1.054900789333590438e-01,4.402518861766792080e-01,6.092824583513787307e-01,4.873292742433387170e-01,5.566570601246858541e-01,7.187226427410580154e-01,5.877834405430587550e-02,5.796008870896124376e-02,-2.050996839354768397e-02
9.800000000000181899e-01,4.416666666666591112e+01,-3.992431559648452311e+00,-2.202292147161907465e+01,8.995065343672689551e+01,3.418566232824091222e-01,-1.119779355852551728e+00,-2.963276648004082303e-01,7.738603028647730309e-01,6.545802548949434252e-01,7.479805396428562680e-01,7.466221027830052259e-01,-5.405767014652083091e-01,-2.250707313008026289e-01,8.721762511692631170e-01,-6.229112755489849107e+00,1.517479759937789474e+01,9.626257877148921560e-01,1.216738171694510307e+01,-1.268318780577787130e+01,-1.312492318486697673e-01,1.207919790197123788e+01,-1.249307935614733722e+01,-3.317860493091238649e-01,-4.453480776726502673e-03,-2.183760837733899826e-02,4.141792586767679973e-02,1.202390849285871546e-02,3.056334120016881376e-03,-9.541660053711036038e-03,2.873428959118291544e-04,-2.730888450845226698e-05,1.710485054530551494e-04,1.064388549625781888e+00,-1.202682254545117901e+00,-5.182602620175114083e-02,4.471440836475669700e-01,6.122038498218975722e-01,5.041394602042775785e-01,5.689084784643182457e-01,7.307608000463944320e-01,5.896080555498928177e-02,6.031924241484032390e-02,-3.308104233307257447e-02
9.900000000000090949e-01,4.374999999999961631e+01,-4.510877710747440261e+00,-2.211818216680325477e+01,9.050794678309384267e+01,3.490245329355542436e-01,-1.118225437972435898e+00,-2.881998218159649294e-01,7.808837308036281621e-01,6.590620676272362921e-01,7.673925800205531056e-01,7.638574509555063896e-01,-6.257092986176530092e-01,-1.023550958026146485e-01,8.986918716184455480e-01,-6.189199367220523662e+00,1.520128418708492113e+01,4.352569342733346169e-01,1.215050212080245906e+01,-1.241492108874202671e+01,-1.147772211045753998e+00,1.204413754296683514e+01,-1.222396895422581231e+01,-1.357521927195280309e+00,-4.402046639710340860e-03,-2.048950849399150051e-02,4.286907553046635094e-02,1.365417824094531177e-02,1.661988613011680356e-03,-9.434423265212167273e-03,2.722283970146138483e-04,-4.700457843691483437e-05,1.841840195268022371e-04,1.072834666426662142e+00,-1.168492896385614932e+00,-2.169889955708299567e-01,4.539120266883351351e-01,6.152258775642089894e-01,5.211174476010619339e-01,5.814813254652632102e-01,7.427989573517309596e-01,5.914326705567257703e-02,6.267839612071929301e-02,-4.565211627259757599e-02
1.000000000000000000e+00,4.333333333333334281e+01,-5.030940140371315650e+00,-2.221010072844985217e+01,9.106994779884867341e+01,3.592119026436234042e-01,-1.115594176588079911e+00,-2.762648244655894758e-01,7.879071587424834044e-01,6.635438803595290480e-01,7.868046203982498321e-01,7.810927991280074423e-01,-6.195438637342829402e-01,1.023004434505453419e-02,9.008660028812979226e-01,-6.384965839449407099e+00,1.553703129715871967e+01,-4.198787022489545648e-03,1.214007678676513713e+01,-1.206001336926277645e+01,-2.211591139360695291e+00,1.203586148757997520e+01,-1.187877149942402610e+01,-2.424898081282673701e+00,-4.137955889093001063e-03,-1.821847735959959691e-02,4.319999736378497129e-02,1.326915346422337383e-02,3.816735525044370747e-04,-9.080616232977288191e-03,2.460671571703859054e-04,-6.126705528721379372e-05,1.699211220029813818e-04,1.083554968511343919e+00,-1.133557995938380802e+00,-3.898603699608909068e-01,4.605637288418050201e-01,6.183420512417299175e-01,5.382524144131780597e-01,5.943548712240553922e-01,7.548371146570673762e-01,5.932572855635598330e-02,6.503754982659837314e-02,-5.822319021212246648e-02
1.009999999999990905e+00,4.291666666666704089e+01,-5.669841947528407644e+00,-2.198328907680259547e+01,9.159169731472718468e+01,3.690951482078576040e-01,-1.114086651838988695e+00,-2.641911093541878253e-01,7.882601760324763340e-01,6.683757561897123445e-01,7.890067786666795646e-01,7.906196252209830577e-01,-6.704458323101381012e-01,1.661310009961634027e-01,9.057509459451745792e-01,-6.650528645877651357e+00,1.544887864698051594e+01,-4.039791238508512183e-01,1.210556610388992560e+01,-1.179023329009629251e+01,-3.259168732578244576e+00,1.198844886011394983e+01,-1.162994130369168744e+01,-3.458616414320918153e+00,-3.735340278444652072e-03,-1.435625725612488419e-02,4.073008358143100083e-02,1.411112869066671709e-02,-1.377523912181979329e-03,-8.747969759454852709e-03,2.130718499905404702e-04,-8.070670164234805934e-05,1.725209558314603217e-04,1.093318665507335918e+00,-1.104418465350033518e+00,-5.585112610580047487e-01,4.668025390433289123e-01,6.215688757238637674e-01,5.544243193803662928e-01,6.070125769413451389e-01,7.590655840274628252e-01,6.074863319853374133e-02,5.913578664423024822e-02,-6.149523583273697191e-02
1.019999999999981810e+00,4.250000000000076028e+01,-6.354533152855998068e+00,-2.161954822939724963e+01,9.209501581987571228e+01,3.758534690382616672e-01,-1.110697918574609089e+00,-2.564379048227334867e-01,7.842087066628659064e-01,6.734387794448208897e-01,7.798452143468244113e-01,7.950564974187935841e-01,-7.636144330390732815e-01,3.541135589044471788e-01,9.126436356084210999e-01,-6.788339734768523037e+00,1.481839260891469578e+01,-7.760360645973101157e-01,1.201953494988363147e+01,-1.165475621042021537e+01,-4.229394655924853197e+00,1.187845724264253100e+01,-1.151664901984159428e+01,-4.408276086734963961e+00,-3.178300986414736573e-03,-1.001561552845200813e-02,3.717331463886964366e-02,1.582082051215622648e-02,-3.491262871048875574e-03,-8.437485781600346721e-03,1.733585022408384120e-04,-1.061510991357545445e-04,1.862376411406306434e-04,1.099468225832090695e+00,-1.085810633711975282e+00,-7.148319418201829478e-01,4.724542564925293675e-01,6.249141222009479968e-01,5.689623925336242394e-01,6.191400963194104712e-01,7.581372994683260869e-01,6.299060514500709473e-02,4.777932207303792200e-02,-5.862711282896565512e-02
1.029999999999972715e+00,4.208333333333446546e+01,-7.034606786668234690e+00,-2.125229611839840871e+01,9.259809493386407553e+01,3.842517575550673525e-01,-1.109086666125736809e+00,-2.482069894393221510e-01,7.801572372932555899e-01,6.785018026999293239e-01,7.706836500269693691e-01,7.994933696166041104e-01,-8.535439024933380026e-01,5.326028099584317888e-01,9.029297835899531277e-01,-6.936495344817455333e+00,1.399497021264411600e+01,-9.819571350637650298e-01,1.189829619866684496e+01,-1.161940268068329019e+01,-5.116020497988872151e+00,1.173290877426972045e+01,-1.150166332557886406e+01,-5.276311579194102208e+00,-2.466428875125561970e-03,-5.955299926379356741e-03,3.378877110128207517e-02,1.743335119896375837e-02,-5.506767446178751149e-03,-7.997667315082376827e-03,1.280435185139822054e-04,-1.325109437093388001e-04,1.992031592269663119e-04,1.101484550581985244e+00,-1.078023401725350716e+00,-8.588005581787951925e-01,4.775567445710698911e-01,6.283701532814897073e-01,5.819720046125834712e-01,6.307716226737631882e-01,7.572090149091895706e-01,6.523257709148050365e-02,3.642285750184576232e-02,-5.575898982519428282e-02
1.040000000000020464e+00,4.166666666666581165e+01,-7.710211370340180004e+00,-2.088154411944127986e+01,9.310083630195333626e+01,3.918246738702512166e-01,-1.107916578222548409e+00,-2.395105015751215483e-01,7.761057679236221807e-01,6.835648259550666239e-01,7.615220857070621463e-01,8.039302418144398388e-01,-9.395636811642362751e-01,6.996334657391299894e-01,8.731715315581298764e-01,-7.099215000041042778e+00,1.306400170381269987e+01,-1.214232627750710947e+00,1.174726296032917183e+01,-1.168003209113408225e+01,-5.921023213459044143e+00,1.155747862745526611e+01,-1.158108191466877024e+01,-6.064712423062050384e+00,-1.619027784107144978e-03,-2.166360114207183628e-03,3.056276281592784638e-02,1.894316999913153721e-02,-7.409623082816921454e-03,-7.410187816499352875e-03,7.820866898357444960e-05,-1.592066294211489969e-04,2.117204972427793805e-04,1.098998577366266716e+00,-1.081229413991672272e+00,-9.905376429155854368e-01,4.821454247369723056e-01,6.319298241324016185e-01,5.935517306801838533e-01,6.419391440899072654e-01,7.562807303500477252e-01,6.747454903796662462e-02,2.506639293058893214e-02,-5.289086682140653473e-02
1.050000000000011369e+00,4.124999999999952394e+01,-8.381495522041818802e+00,-2.050730283812659493e+01,9.360314212060008288e+01,4.037247604493252595e-01,-1.104476529524655470e+00,-2.268801533863294417e-01,7.720542985540117531e-01,6.886278492101751691e-01,7.523605213872069930e-01,8.083671140122503651e-01,-1.000894395025930583e+00,8.220323342029058900e-01,8.330722052016037438e-01,-6.996091967907663189e+00,1.231746134524690639e+01,-1.638553131531650831e+00,1.157848311029638744e+01,-1.182553917824470879e+01,-6.649146424485186557e+00,1.137037213161600135e+01,-1.174707701523079528e+01,-6.777915508887310203e+00,-8.057879798638242774e-04,1.294991915274672353e-03,2.756596230511750706e-02,1.994329254643967958e-02,-8.825206557307301372e-03,-6.788643449797297086e-03,3.323443423180836843e-05,-1.820603240064181869e-04,2.195771637933123163e-04,1.091766681390307747e+00,-1.095502935767558084e+00,-1.110277489025592423e+00,4.862534340116384524e-01,6.355864507124202589e-01,6.037937883963625518e-01,6.526725856452664232e-01,7.553524457909110978e-01,6.971652098443997803e-02,1.370992835939660592e-02,-5.002274381763521793e-02
