t_s,phi_deg,roll_deg,pitch_deg,yaw_deg,pos_x,pos_y,pos_z,u0,u1,u2,u3,wx,wy,wz,wx_dot,wy_dot,wz_dot,pred_wx_dot,pred_wy_dot,pred_wz_dot,pred_nogyro_wx_dot,pred_nogyro_wy_dot,pred_nogyro_wz_dot,tau_gyro_x,tau_gyro_y,tau_gyro_z,flap_damp_x,flap_damp_y,flap_damp_z,flap_prec_x,flap_prec_y,flap_prec_z,tau_cmd_x,tau_cmd_y,tau_cmd_z,spd0,spd1,spd2,spd3,sem_lift,sem_roll,sem_pitch,sem_yaw
0.000000000000000000e+00,8.500000000000000000e+01,-2.042971533537611684e-02,-3.389358146317724141e-01,1.794923290684056951e+02,-3.227622807025909424e-02,-3.788765668869018555e-01,-1.148105263710021973e-01,8.063108325004577637e-01,8.945525288581848145e-01,5.251522064208984375e-01,7.558760643005371094e-01,3.263671976243607761e-03,2.038444126338011166e-03,-2.932988690691532702e-03,1.229486674337492867e-03,-1.651394860321861793e-02,6.295218878393843420e-02,-2.730753397608543764e+01,1.645423232497687627e+00,5.581406471823417093e+01,-2.730681817926585708e+01,1.643499250084897501e+00,5.581354358589150166e+01,2.691295822749037941e-05,2.008641634186535076e-04,9.622200115944059363e-06,-5.327048865796384807e-05,8.877444810625118614e-08,4.727198902941075995e-05,-1.041829366867660458e-06,-1.354570146301693428e-07,-1.253435063075869129e-06,-1.045253801062661081e+00,1.715424415438119299e-01,5.959153996002649833e+00,8.063108325004577637e-01,8.945525288581848145e-01,5.251522064208984375e-01,7.558760643005371094e-01,7.454729080200195312e-01,7.124108076095581055e-02,-1.594827771186828613e-01,-2.099175453186035156e-01
1.000000000021827873e-02,8.500000000000000000e+01,-2.157375490025199155e-02,-3.368831907025813255e-01,1.794910348491937100e+02,-3.227622807025909424e-02,-3.788765668869018555e-01,-1.148105263710021973e-01,8.067544002709738926e-01,8.964152404609084801e-01,5.258764145047996053e-01,7.561585292124188840e-01,1.030106207237253997e-02,-4.172377020310496024e-04,6.435043034656150879e-03,8.433144534695886582e-03,-2.540088718573534771e-02,5.356376782391879254e-02,-2.727708540105317070e+01,1.646829593053522833e+00,5.582940048460631033e+01,-2.727109271928664924e+01,1.643955114604351841e+00,5.582976601577857423e+01,-6.371794426285376696e-05,3.011510997626768425e-04,6.910926437490425738e-05,-1.681246687618070728e-04,-6.971609674653304050e-07,-1.041806290559592818e-04,2.453994103369049741e-06,-4.275367403465811678e-07,-3.956015506658863764e-06,-1.043886289574655013e+00,1.715848271130451796e-01,5.960885324016347298e+00,8.063394395233210998e-01,8.946726607454610347e-01,5.251989127836936833e-01,7.558942813143271211e-01,7.463011461122752710e-01,7.031063725884234561e-02,-1.599714774487769331e-01,-2.105673485073319418e-01
1.999999999998181011e-02,8.500000000000000000e+01,-2.293481975239964124e-02,-3.376199480464852076e-01,1.794921421645772739e+02,-3.227622807025909424e-02,-3.788765668869018555e-01,-1.148105263710021973e-01,8.071979680414698155e-01,8.982779520635474357e-01,5.266006225886677994e-01,7.564409941242876689e-01,3.758064104651663399e-03,2.131982437566161837e-03,5.593375086786952013e-03,6.377528299565071029e-03,-3.005437426267286091e-02,4.790678050991898501e-02,-2.720499592888895535e+01,1.649224305031743221e+00,5.586012757815623786e+01,-2.720192986574833327e+01,1.644711559155779490e+00,5.586115021282690662e+01,-5.827218272178010330e-05,4.720926346103354381e-04,-1.691047577316701057e-05,-6.132734069999644464e-05,-9.145503783289913967e-07,-9.083203550291164613e-05,2.236376711390544656e-06,-1.559727446813987126e-07,-1.443120793065358266e-06,-1.041238830292483986e+00,1.716668821368945164e-01,5.964236995516635886e+00,8.063948086158928552e-01,8.949051768524037831e-01,5.252893132751271787e-01,7.559295404717633060e-01,7.471293842044932632e-01,6.938019375677112466e-02,-1.604601777788487449e-01,-2.112171516960308915e-01
3.000000000020008883e-02,8.500000000000000000e+01,-2.429589896565814006e-02,-3.383566792750624663e-01,1.794932494978094155e+02,-3.227622807025909424e-02,-3.788765668869018555e-01,-1.148105263710021973e-01,8.076415358119859444e-01,9.001406636662709904e-01,5.273248306725689671e-01,7.567234590361694435e-01,-5.115955364450634757e-03,5.540274795489073464e-03,2.999251366220297664e-03,-7.026213120047768504e-03,-2.962818652152910195e-02,4.909000973104993282e-02,-2.710018620163868519e+01,1.651846571637657357e+00,5.590516122451501957e+01,-2.710145406671216861e+01,1.645829709589810452e+00,5.590677371932238060e+01,-3.632001009353370662e-05,6.288381323836192026e-04,-1.249226266557697230e-04,8.346998452249206513e-05,-1.034800389895102765e-06,-4.920606742894967443e-05,1.381522739793159993e-06,2.123250367120654091e-07,1.964313391255608666e-06,-1.037392793917558009e+00,1.717860807650198884e-01,5.969105766444494421e+00,8.064752138116120239e-01,8.952428291818572692e-01,5.254205899291087833e-01,7.559807426736212532e-01,7.479576222967488919e-01,6.844975025465771523e-02,-1.609488781089427611e-01,-2.118669548847592066e-01
3.999999999996362021e-02,8.500000000000000000e+01,-2.565699254133911936e-02,-3.390933843883621734e-01,1.794943568488874064e+02,-3.227622807025909424e-02,-3.788765668869018555e-01,-1.148105263710021973e-01,8.080851035824819784e-01,9.020033752689099460e-01,5.280490387564371613e-01,7.570059239480383395e-01,-5.583810826306000868e-03,5.587841657151166458e-03,-9.119716244562394575e-04,-1.163522617052965835e-02,-3.452003815397729908e-02,4.998324744782572243e-02,-2.696919439191587742e+01,1.654830948802153090e+00,5.596445365478179923e+01,-2.697164081938070979e+01,1.647318480262988771e+00,5.596568569879840283e+01,2.682900245158952626e-06,7.844759546321392616e-04,-1.478028127234038943e-04,9.107995466552718628e-05,-5.866932441457564598e-07,1.411516143246716052e-05,-1.181997606294899544e-07,2.317352421730766587e-07,2.143602816458311054e-06,-1.032423838229189927e+00,1.719400729096493829e-01,5.975395547869020163e+00,8.065790404567021454e-01,8.956788371818439343e-01,5.255901065186733279e-01,7.560468597048976003e-01,7.487858603889668840e-01,6.751930675258660530e-02,-1.614375784390145729e-01,-2.125167580734582118e-01
5.000000000018189894e-02,8.500000000000000000e+01,-2.701810048100177983e-02,-3.398300633865669051e-01,1.794954642178086317e+02,-3.227622807025909424e-02,-3.788765668869018555e-01,-1.148105263710021973e-01,8.085286713529981073e-01,9.038660868716336116e-01,5.287732468403383290e-01,7.572883888599200031e-01,-2.329473626595385261e-03,4.147301961647295587e-03,-5.406397278764856103e-03,-5.449557760051237931e-03,-4.557929543343623713e-02,4.921463733979185989e-02,-2.681210033860794439e+01,1.658064693791684974e+00,5.603663799268366574e+01,-2.681433077743515980e+01,1.649111152656982604e+00,5.603705380934960800e+01,4.929474141098781246e-05,9.343264235492997711e-04,-1.323000530298895790e-04,3.798524827963890301e-05,1.112132530146137760e-07,8.700964348361865067e-05,-1.902974508385585803e-06,9.667256769112565335e-08,8.940998986472499494e-07,-1.026402346315218539e+00,1.721266709799993966e-01,5.983016870013850408e+00,8.067047780312798233e-01,8.962068575986373853e-01,5.257953968350849161e-01,7.561269296632761039e-01,7.496140984812225128e-01,6.658886325047308485e-02,-1.619262787691085892e-01,-2.131665612621866934e-01
5.999999999994543032e-02,8.500000000000000000e+01,-2.828571944545231823e-02,-3.405671107344133697e-01,1.794965322528637159e+02,-3.227622807025909424e-02,-3.788765668869018555e-01,-1.148105263710021973e-01,8.089722391234940302e-01,9.057287984742725673e-01,5.294974549242065232e-01,7.575708537717888991e-01,-1.401103811558395036e-03,2.799018078325957171e-03,-1.734162034534116048e-03,4.676436835568228284e-03,-4.706173891304900325e-02,4.381362834599377559e-02,-2.663028568447521138e+01,1.661455578164491298e+00,5.611908589480327691e+01,-2.663123724062360509e+01,1.651185103635300466e+00,5.612012235524061765e+01,1.413442481927437183e-05,1.072079004119699678e-03,-1.389297334856347081e-04,2.283866105082844346e-05,-1.466712792881658595e-07,2.773028945228927247e-05,-5.493011255295657728e-07,5.814295457621446979e-08,5.376493448084172474e-07,-1.019393827072309966e+00,1.723438377340784922e-01,5.991886390959336950e+00,8.068510134334402339e-01,8.968209562740577789e-01,5.260341537228404585e-01,7.562200526824196523e-01,7.504423365734405049e-01,6.565841974840191941e-02,-1.624149790991804565e-01,-2.138163644508855876e-01
7.000000000016370905e-02,8.500000000000000000e+01,-2.783125205087256734e-02,-3.413114121914275212e-01,1.794968755342303552e+02,-3.227622807025909424e-02,-3.788765668869018555e-01,-1.148105263710021973e-01,8.094158068940101591e-01,9.075915100769961219e-01,5.302216630081075799e-01,7.578533186836706736e-01,-6.042070603993060507e-04,1.455948865778398504e-03,2.399685843576322003e-03,1.917716906322797579e-02,-3.791154799726079161e-02,3.326950967549038851e-02,-2.642434050256676770e+01,1.665038942362570884e+00,5.621242710721253388e+01,-2.642395108032355466e+01,1.653537864986802663e+00,5.621415581354246171e+01,-2.573221172011113585e-05,1.200866709879158363e-03,-1.458335904777945059e-04,9.844843600876092887e-06,-4.559722382970248528e-07,-3.897036655127833157e-05,9.810149991170329507e-07,2.507213237997550615e-08,2.317938606888181902e-07,-1.011459281638934282e+00,1.725896751418011243e-01,6.001926445826397227e+00,8.070164246964836030e-01,8.975155817616884413e-01,5.263042188218554074e-01,7.563253869310856414e-01,7.512705746656960226e-01,6.472797624628856550e-02,-1.629036794292745283e-01,-2.144661676396140138e-01
7.999999999992724042e-02,8.500000000000000000e+01,-2.737678909050421383e-02,-3.420557164070950340e-01,1.794972188098008132e+02,-3.227622807025909424e-02,-3.788765668869018555e-01,-1.148105263710021973e-01,8.098593746645060820e-01,9.094542216796350775e-01,5.309458710919758850e-01,7.581357835955395696e-01,4.630069190588381126e-04,1.224366343010986971e-04,1.251961684874461833e-03,-3.174275362721685340e-02,-9.944526399250600002e-03,-2.616074825918092428e-02,-2.619447302565845703e+01,1.668813631482238158e+00,5.631688840652364547e+01,-2.619395677657555765e+01,1.656152241624085697e+00,5.631847570012862292e+01,-1.270554000133672471e-05,1.321722261580819072e-03,-1.490469428389000885e-04,-7.540742671509356446e-06,-1.585291094612451488e-07,-2.024915825237340325e-05,4.852359897572587091e-07,-1.921184673384524224e-08,-1.775736346144379596e-07,-1.002655539033041832e+00,1.728624141644602707e-01,6.013064632683237321e+00,8.071997751113256792e-01,8.982855406446186297e-01,5.266035729711903146e-01,7.564421448702650652e-01,7.520988127579142368e-01,6.379753274421734455e-02,-1.633923797593463401e-01,-2.151159708283129079e-01
9.000000000014551915e-02,8.500000000000000000e+01,-2.692233056404789993e-02,-3.428000233816095865e-01,1.794975620795750899e+02,-3.227622807025909424e-02,-3.788765668869018555e-01,-1.148105263710021973e-01,8.103029424350222110e-01,9.113169332823587432e-01,5.316700791758769418e-01,7.584182485074212332e-01,1.556890297708212259e-03,-1.210132708976620515e-03,-4.168404444295694539e-04,-5.887739803651344250e-02,2.915938160253746334e-03,-3.558984867477456293e-02,-2.594316052942841822e+01,1.670424559467086345e+00,5.643110274835222384e+01,-2.594263897052470114e+01,1.659006415091623277e+00,5.643245010162038966e+01,5.589456291336901813e-06,1.191646999800354901e-03,-1.501306183699116460e-04,-2.534372580280406584e-05,1.971969136768516578e-07,6.872036475712297835e-06,-2.100271542191306608e-07,-6.459714834574351003e-08,-5.969145265635868409e-07,-9.930355639163874759e-01,1.731604053655775299e-01,6.025233431807524909e+00,8.073999077279822023e-01,8.991259744450632585e-01,5.269303272316865350e-01,7.565695897517152879e-01,7.529270508501697545e-01,6.286708924210387961e-02,-1.638810800894404118e-01,-2.157657740170412786e-01
9.999999999990905053e-02,8.500000000000000000e+01,-2.646787647128692744e-02,-3.435443331150297430e-01,1.794979053435530716e+02,-3.227622807025909424e-02,-3.788765668869018555e-01,-1.148105263710021973e-01,8.122475135138883529e-01,9.120914226462248919e-01,5.325652436507483101e-01,7.590485753012196080e-01,-1.536779514804064665e-04,-1.273609488780155004e-03,-4.451345093254806327e-04,-1.915028091134060584e-02,-4.604515133816975726e-03,-1.796017959582843493e-02,-2.572832751151054254e+01,1.669275337800734560e+00,5.655357469490507327e+01,-2.572854253621090947e+01,1.661589889263692443e+00,5.655516894538757811e+01,5.953888076401125391e-06,8.019615636145632385e-04,-1.776071836555778694e-04,2.500243174397610315e-06,2.080078856328057933e-07,7.331849829601700931e-06,-2.233889935130106831e-07,6.375726532476012462e-09,5.888057777510110658e-08,-9.848403537929668605e-01,1.734300087873591467e-01,6.038336131615860580e+00,8.077125444404934518e-01,8.999621552899725874e-01,5.272937399806466585e-01,7.567294670038658966e-01,7.539881887780203185e-01,6.331971125906737941e-02,-1.631636203914039185e-01,-2.163625586040726634e-01
1.100000000001273293e-01,8.500000000000000000e+01,-2.601357053475500739e-02,-3.442548942333105155e-01,1.794982401584080378e+02,-3.227622807025909424e-02,-3.788765668869018555e-01,-1.148105263710021973e-01,8.143252710594953703e-01,9.127693522796400671e-01,5.334755773644904719e-01,7.597097684460261124e-01,-2.464232128175639601e-03,-1.082276386633493088e-03,-6.187167809028607435e-05,2.229291493329002213e-02,-5.156395079280777505e-03,-9.835327807251166565e-03,-2.555327156992435533e+01,1.667852196538419873e+00,5.668410531491279869e+01,-2.555436559575071698e+01,1.663873915718411478e+00,5.668605662320395311e+01,1.879111477494493554e-06,4.149939118315666350e-04,-2.104033074699573566e-04,4.006672236577221214e-05,1.406811153849445597e-07,1.120998056336033304e-06,-6.857702391531717993e-08,1.022237128415181443e-07,9.431681316168730694e-07,-9.781731883723798759e-01,1.736684004477632159e-01,6.052311035151021201e+00,8.081390191173145610e-01,9.007881300371303190e-01,5.276924253115750085e-01,7.569216756293853932e-01,7.550699922874131165e-01,6.389505493069547182e-02,-1.623391361508401687e-01,-2.169546387643094265e-01
1.199999999998908606e-01,8.500000000000000000e+01,-2.556537203586347826e-02,-3.435317569497598478e-01,1.794982163155232229e+02,-3.227622807025909424e-02,-3.788765668869018555e-01,-1.148105263710021973e-01,8.164030286050080187e-01,9.134472819130244892e-01,5.343859110781912225e-01,7.603709615908024189e-01,-1.536381866624973464e-03,-2.741164978514614749e-03,-1.771631942927439328e-04,2.504833223946806298e-02,5.100911874786114714e-03,8.244121032690175307e-03,-2.541679297563271689e+01,1.666423735434682030e+00,5.682267423149760788e+01,-2.541757026353347726e+01,1.665877741094499376e+00,5.682460585729979385e+01,4.970892186067757077e-06,5.656660686496999940e-05,-2.099913303576665994e-04,2.496364145661940701e-05,3.583427147584130941e-07,3.166442474522447379e-06,-1.814105826138176468e-07,6.372517431261779074e-08,5.872253200309060238e-07,-9.729369186089047439e-01,1.738775434132872610e-01,6.067103893764132394e+00,8.086719900049031962e-01,9.016045569085493483e-01,5.281241083893120081e-01,7.571441304805252015e-01,7.561517957967565096e-01,6.447039860229736297e-02,-1.615146519103138334e-01,-2.175467189245194333e-01
1.300000000001091394e-01,8.500000000000000000e+01,-2.511717388084716562e-02,-3.428086195278978177e-01,1.794981924783513705e+02,-3.227622807025909424e-02,-3.788765668869018555e-01,-1.148105263710021973e-01,8.184807861506151472e-01,9.141252115464396644e-01,5.352962447919333844e-01,7.610321547356088123e-01,-6.085316050321134314e-04,-4.400053570471173896e-03,-2.924547105004446541e-04,1.920446234173790734e-02,1.489522500251765080e-02,9.889307263688400934e-03,-2.531533181733754034e+01,1.664954573207126032e+00,5.696844109432547043e+01,-2.531579305291871762e+01,1.667618702623884674e+00,5.697034761419019588e+01,8.068882083415544477e-06,-2.786718870656547387e-04,-2.089974237705831774e-04,9.880414906062432210e-06,5.756274678940083854e-07,5.208103622635737150e-06,-2.940639758770798998e-07,2.523640079908404686e-08,2.321922176071414758e-07,-9.690410759495462489e-01,1.740592643700049624e-01,6.082664487022723776e+00,8.093045888415503208e-01,9.024120516755247401e-01,5.285866610896815532e-01,7.573948808870056837e-01,7.572335993061493076e-01,6.504574227392545538e-02,-1.606901676697499726e-01,-2.181387990847562519e-01
1.399999999998726707e-01,8.500000000000000000e+01,-2.466897606950517463e-02,-3.420854819676750203e-01,1.794981686468925091e+02,-3.227622807025909424e-02,-3.788765668869018555e-01,-1.148105263710021973e-01,8.205585436961277956e-01,9.148031411798240864e-01,5.362065785056341349e-01,7.616933478803852298e-01,1.501416512060866140e-03,-3.185898022398443719e-03,-1.797465892432168573e-03,3.683800634086316535e-03,1.251430380620130456e-02,-1.035355404572566897e-02,-2.524692039786802056e+01,1.663455842763643222e+00,5.712128514846241956e+01,-2.524683231222515545e+01,1.669111408255542717e+00,5.712284784421721895e+01,2.180355382252144059e-05,-5.908373482149216135e-04,-1.955739476138854919e-04,-2.435873866096439135e-05,5.946145892589143335e-07,2.929829420655873584e-05,-8.165683683486890221e-07,-6.225426168643361112e-08,-5.717346329626776334e-07,-9.664013775053683641e-01,1.742152639580861750e-01,6.098946283611690333e+00,8.100303903204401079e-01,9.032111903964000765e-01,5.290780925376463717e-01,7.576721019831508253e-01,7.583154028154928117e-01,6.562108594552740204e-02,-1.598656834292236928e-01,-2.187308792449662032e-01
1.500000000000909495e-01,8.500000000000000000e+01,-2.422077860155507495e-02,-3.413623442689104337e-01,1.794981448211465818e+02,-3.227622807025909424e-02,-3.788765668869018555e-01,-1.148105263710021973e-01,8.226363012417349241e-01,9.154810708132393726e-01,5.371169122193762968e-01,7.623545410251916232e-01,3.741688063265810951e-03,-1.654996295734711183e-03,-3.455690311651461559e-03,-3.323475212437659171e-02,-3.735973522021203246e-03,-6.665430835942211252e-03,-2.520929782029533328e+01,1.661916717110907937e+00,5.728051479484729214e+01,-2.520863541431146970e+01,1.670368034148973058e+00,5.728169500029947869e+01,3.668028872587639260e-05,-8.825502786767359421e-04,-1.803660220769836881e-04,-6.065442780079792527e-05,5.911975116954035914e-07,5.577829191675639955e-05,-1.381519664062462325e-06,-1.551139464092260066e-07,-1.421569118303828038e-06,-9.649392719080889247e-01,1.743471262271617250e-01,6.115906134855567444e+00,8.108433835221772190e-01,9.040025119777834739e-01,5.295965402557083479e-01,7.579740865943777051e-01,7.593972063248854987e-01,6.619642961715543894e-02,-1.590411991886598875e-01,-2.193229594052032438e-01
1.599999999998544808e-01,8.500000000000000000e+01,-2.377258147679596825e-02,-3.406392064315547641e-01,1.794981210011136454e+02,-3.227622807025909424e-02,-3.788765668869018555e-01,-1.148105263710021973e-01,8.247140587872475725e-01,9.161590004466236836e-01,5.380272459330770474e-01,7.630157341699679296e-01,3.002198971852887421e-04,2.928448002664928336e-04,-8.904798221381991091e-04,-4.254575289114877895e-02,-1.050348579321893315e-02,4.549035169414889120e-03,-2.519919979897391471e+01,1.660290947983262599e+00,5.744456825977978554e+01,-2.519928897582229510e+01,1.671422571713334193e+00,5.744651302139805438e+01,8.601310726108374766e-06,-1.161924874739452473e-03,-2.218066062589829949e-04,-4.862469258249961652e-06,6.358120358864632811e-08,1.428021778082612034e-05,-3.253189604918567231e-07,-1.244315022056625035e-08,-1.137714007590334787e-07,-9.645815220817104407e-01,1.744563272971103585e-01,6.133503997360145732e+00,8.117379451896690190e-01,9.047865205705674096e-01,5.301402618831528857e-01,7.582992376469355200e-01,7.604790098342291138e-01,6.677177328875738560e-02,-1.582167149481334967e-01,-2.199150395654131396e-01
1.700000000000727596e-01,8.500000000000000000e+01,-2.373103261529100130e-02,-3.400812473974101358e-01,1.794981038498046928e+02,-3.227622807025909424e-02,-3.788765668869018555e-01,-1.148105263710021973e-01,8.267918163328545900e-01,9.168369300800389698e-01,5.389375796468192092e-01,7.636769273147743231e-01,-3.904313131115111357e-03,2.296681383344742304e-03,2.241943341148935204e-03,-4.545789678995468090e-03,-7.603353830099673222e-03,-3.548242327800679458e-03,-2.521599242411929964e+01,1.658608430984815030e+00,5.761410965914257787e+01,-2.521700960404391623e+01,1.672259304702721439e+00,5.761696784448795228e+01,-2.518482106993527253e-05,-1.424452035135220784e-03,-2.703817898012879947e-04,6.317815561899103860e-05,-5.325816477989434068e-07,-3.625911571524158755e-05,9.424052737705348986e-07,1.617840809937077800e-07,1.475451559172519684e-06,-9.652598215498104928e-01,1.745442432998081661e-01,6.151702681677493345e+00,8.127088147266385842e-01,9.055636878114369237e-01,5.307076274293666129e-01,7.586460610671788007e-01,7.615608133436218008e-01,6.734711696038536699e-02,-1.573922307075697469e-01,-2.205071197256499582e-01
1.799999999998362910e-01,8.500000000000000000e+01,-2.369305280944941638e-02,-3.395247380255287939e-01,1.794980867573905527e+02,-3.227622807025909424e-02,-3.788765668869018555e-01,-1.148105263710021973e-01,8.288695738783672384e-01,9.175148597134233919e-01,5.398479133605199598e-01,7.643381204595507405e-01,-3.198662402086040798e-03,3.994221309565402882e-03,9.626292331097840820e-04,2.907438297004746874e-02,-1.022335787742999560e-02,-1.386140982033713491e-02,-2.525914113135480221e+01,1.656961002043223496e+00,5.779006381243523549e+01,-2.526013127192117835e+01,1.672913698735157384e+00,5.779272300553216013e+01,-1.433799084247468850e-05,-1.664612531122387383e-03,-2.692353789728631750e-04,5.171056350958958122e-05,-5.977590375076208908e-07,-1.588901604931305906e-05,5.281512338588286226e-07,1.325112905158407961e-07,1.205134889032504193e-06,-9.669104412433751072e-01,1.746121576694141253e-01,6.170467624251424255e+00,8.137510708085113897e-01,9.063344549198014688e-01,5.312971120267397929e-01,7.590131591387718757e-01,7.626426168529653049e-01,6.792246063198731365e-02,-1.565677464670434671e-01,-2.210991998858600205e-01
1.900000000000545697e-01,8.500000000000000000e+01,-2.365507317228677034e-02,-3.389682286474722250e-01,1.794980696653711050e+02,-3.227622807025909424e-02,-3.788765668869018555e-01,-1.148105263710021973e-01,8.309473314239743669e-01,9.181927893468385671e-01,5.407582470742621217e-01,7.649993136043571340e-01,-8.132293086835868864e-04,5.586976619290603616e-03,-1.825947833521076452e-03,2.221214659353910534e-02,-1.147020552960083782e-02,-1.352148763226596571e-02,-2.532646356904593077e+01,1.655700702806611080e+00,5.797139393919810857e+01,-2.532709978873995027e+01,1.673387205993466020e+00,5.797347322776597167e+01,1.167362131932301206e-05,-1.845596850532140940e-03,-2.509532232487822478e-04,1.313400720276132976e-05,-4.822991515815807773e-07,2.864435857878764325e-05,-4.543318466429440035e-07,3.368094334878806454e-08,3.054033671314477671e-07,-9.694739040830255838e-01,1.746612678416673559e-01,6.189766680215418759e+00,8.148601095017846685e-01,9.070992346595044831e-01,5.319072891509775136e-01,7.593992242883238486e-01,7.637244203623581029e-01,6.849780430361540606e-02,-1.557432622264796063e-01,-2.216912800460968391e-01
1.999999999998181011e-01,8.500000000000000000e+01,-2.361709370379572528e-02,-3.384117192632383198e-01,1.794980525737463495e+02,-3.227622807025909424e-02,-3.788765668869018555e-01,-1.148105263710021973e-01,8.326682363081132632e-01,9.188405980434946052e-01,5.414302947120841480e-01,7.655085563987994446e-01,4.144445276226206478e-04,5.678440561943693711e-03,-2.019184759892965215e-03,4.305399018029358073e-03,1.104750611359740439e-03,-8.706377320749201024e-03,-2.541019199276962581e+01,1.655453590672229414e+00,5.815593747101625155e+01,-2.541035495487431817e+01,1.673734649738852998e+00,5.815792754886469851e+01,1.344532502296289029e-05,-1.907613960472387448e-03,-2.440235219336658336e-04,-6.686800609649031440e-06,-4.716788547762480162e-07,3.170011902466393611e-05,-5.206406764981253582e-07,-1.716071065405105603e-08,-1.551233749895842369e-07,-9.726607587254583187e-01,1.746976916295070459e-01,6.209461130641150461e+00,8.160086092904641486e-01,9.078564705839773374e-01,5.325214564911739945e-01,7.597932335355714883e-01,7.646119213656228375e-01,6.895294997566697726e-02,-1.551253117110483193e-01,-2.222849916203621379e-01
2.100000000000363798e-01,8.500000000000000000e+01,-2.357911440396203914e-02,-3.378552098727240494e-01,1.794980354825163147e+02,-3.227622807025909424e-02,-3.788765668869018555e-01,-1.148105263710021973e-01,8.338166900480041832e-01,9.194400877375084047e-01,5.417200917698550278e-01,7.657740455062539420e-01,1.616316736744971908e-03,5.736446978784856196e-03,-2.154582374299486309e-03,-7.447719882196891274e-03,1.360487608448140463e-02,3.706437041695752246e-04,-2.549940959579448219e+01,1.655848055417489917e+00,5.834233228028018914e+01,-2.549909749677819448e+01,1.674044542403744229e+00,5.834424176556904484e+01,1.467256564882441869e-05,-1.898745198265919384e-03,-2.370996090085448484e-04,-2.605281087079038135e-05,-4.633949567159238942e-07,3.382886562691006516e-05,-5.663197888544581209e-07,-6.691607839300345521e-08,-6.029997758741643828e-07,-9.760576589344058807e-01,1.747302181715734704e-01,6.229354161600888062e+00,8.171571061093183541e-01,9.086035329784480918e-01,5.331147042138906222e-01,7.601789541315198129e-01,7.651877287654053061e-01,6.921527802344734637e-02,-1.548386757129515678e-01,-2.228813202547018091e-01
2.199999999997999112e-01,8.500000000000000000e+01,-2.411642171865389928e-02,-3.391064076579154429e-01,1.794985206210791091e+02,-3.227622807025909424e-02,-3.788765668869018555e-01,-1.148105263710021973e-01,8.349651437878429228e-01,9.200395774314948927e-01,5.420098888276128068e-01,7.660395346136963379e-01,-2.516487418476777947e-03,2.272811107179894315e-03,-2.859600303760090334e-04,-1.897472761237116098e-02,8.487130317281176006e-03,1.396467416885473385e-02,-2.559194330280278962e+01,1.656150881379404360e+00,5.852972979415782362e+01,-2.559300550460531198e+01,1.674323823536556288e+00,5.853233049922597075e+01,1.478489304066409570e-07,-1.896675834831347508e-03,-2.829284951108664210e-04,4.052349700879841345e-05,-2.463369687252804121e-07,4.318118591826628341e-06,-1.225306751757098772e-08,1.041762663284505825e-07,9.358219227689605527e-07,-9.796522533308398284e-01,1.747590805980239193e-01,6.249435207677201731e+00,8.183056001498769660e-01,9.093410779645375586e-01,5.336883814883299770e-01,7.605569206362803314e-01,7.657635361651617956e-01,6.947760607121578058e-02,-1.545520397148677505e-01,-2.234776488890143353e-01
2.300000000000181899e-01,8.500000000000000000e+01,-2.468735209414893439e-02,-3.404632159257033330e-01,1.794990351159041779e+02,-3.227622807025909424e-02,-3.788765668869018555e-01,-1.148105263710021973e-01,8.361135975277339538e-01,9.206390671255086922e-01,5.422996858853836866e-01,7.663050237211508353e-01,-7.595138360176665812e-03,-1.815217663706758001e-03,1.937978308044130057e-03,-7.689567460243193833e-03,-7.470537022002320289e-03,1.333019445259736070e-02,-2.568901158769435966e+01,1.656393251165729552e+00,5.871864168446297327e+01,-2.569177458768578504e+01,1.674557199776587124e+00,5.872206596508031851e+01,-1.707183364237495568e-05,-1.896201090769987366e-03,-3.376818287851967703e-04,1.221910124858013836e-04,7.383712293656753315e-09,-3.074060543495001785e-05,6.432789020577424092e-07,3.144214096077657884e-07,2.815581340219227222e-06,-9.834329554555585329e-01,1.747844968815371602e-01,6.269694353850235657e+00,8.194540915913239854e-01,9.100697193486086967e-01,5.342437504717064689e-01,7.609276331345727895e-01,7.663393435649442642e-01,6.973993411899620520e-02,-1.542654037167709435e-01,-2.240739775233541176e-01
2.399999999997817213e-01,8.500000000000000000e+01,-2.525829471762759681e-02,-3.418200191302148139e-01,1.794995496245782078e+02,-3.227622807025909424e-02,-3.788765668869018555e-01,-1.148105263710021973e-01,8.372620512675725823e-01,9.212385568194951802e-01,5.425894829431414657e-01,7.665705128285932313e-01,-3.148690290400917718e-03,-2.423524148934444889e-03,2.618534832252291875e-04,1.567836136388904567e-02,-1.731515546225145460e-02,-4.400902276343715211e-03,-2.579379239422914694e+01,1.656724482602527804e+00,5.891058495766164071e+01,-2.579512210956053408e+01,1.674778760563034430e+00,5.891339827561476739e+01,2.930948136181128981e-07,-1.884829615917062986e-03,-2.976297272517907364e-04,5.060947821713417572e-05,2.669496020839100785e-07,-3.908928020811001397e-06,-3.563987764776786227e-09,1.303583422321811854e-07,1.163645764767638386e-06,-9.873888978680132045e-01,1.748066708370836220e-01,6.290122297238680105e+00,8.206025806012806623e-01,9.107900313507979462e-01,5.347819919209089168e-01,7.612915594591440627e-01,7.669151509647006426e-01,7.000226216676458391e-02,-1.539787677186871817e-01,-2.246703061576665328e-01
2.500000000000000000e-01,8.500000000000000000e+01,-2.582924959016332303e-02,-3.431768172723320132e-01,1.795000641471009430e+02,-3.227622807025909424e-02,-3.788765668869018555e-01,-1.148105263710021973e-01,8.384105050074636134e-01,9.218380465135089796e-01,5.428792800009123454e-01,7.668360019360477287e-01,3.188165732930082694e-03,-2.341224197852233117e-03,-2.188301135320482385e-03,1.297487070365508852e-02,-1.544810028615231472e-02,-1.066624203567658954e-02,-2.590350465161444404e+01,1.657030656509129951e+00,5.910431684983090150e+01,-2.590278163500326158e+01,1.674957928759030601e+00,5.910623534098701271e+01,2.442485777491651088e-05,-1.871571260425331949e-03,-2.387932757655229679e-04,-5.119736767154802414e-05,5.273044158774807555e-07,3.513264831393511075e-05,-9.032099826970225522e-07,-1.320110070852320838e-07,-1.174662714749162535e-06,-9.915098888109099562e-01,1.748257930539957594e-01,6.310710310860210726e+00,8.217510673365644447e-01,9.115025511580575612e-01,5.353042104422559566e-01,7.616491372707984153e-01,7.674909583644832223e-01,7.026459021454500853e-02,-1.536921317205903748e-01,-2.252666347920063150e-01
2.600000000002182787e-01,8.500000000000000000e+01,-2.627899374705332594e-02,-3.439126863876910689e-01,1.795005078187027721e+02,-3.227622807025909424e-02,-3.788765668869018555e-01,-1.148105263710021973e-01,8.395589587473545334e-01,9.224375362075227791e-01,5.431690770586833361e-01,7.671014910435022260e-01,2.916239078428112686e-03,-3.081669040790414003e-03,-2.477127998196424798e-03,5.138353747669597259e-03,-1.492007572275249119e-02,4.098353626763168167e-03,-2.601501778152456268e+01,1.657235523222154505e+00,5.929855307924424324e+01,-2.601450310963214463e+01,1.675113441393959013e+00,5.930048656038443511e+01,2.812559322184787108e-05,-1.866552809333795566e-03,-2.451462394591503850e-04,-4.678867830917961057e-05,6.489962595761670937e-07,3.978175310231476711e-05,-1.037589702171230615e-06,-1.207754436629822832e-07,-1.071268700347541833e-06,-9.957863713219416990e-01,1.748420417651333214e-01,6.331450209335311996e+00,8.228995519438758732e-01,9.122077813125317736e-01,5.358114394026736171e-01,7.620007760042744049e-01,7.680667657642656909e-01,7.052691826232532213e-02,-1.534054957224935678e-01,-2.258629634263459862e-01
2.699999999999818101e-01,8.500000000000000000e+01,-2.656640147340631405e-02,-3.438170230568833863e-01,1.795008565931365467e+02,-3.227622807025909424e-02,-3.788765668869018555e-01,-1.148105263710021973e-01,8.407074124871932730e-01,9.230370259015092671e-01,5.434588741164410042e-01,7.673669801509447330e-01,-2.532090951669913742e-04,-4.182833983237946307e-03,-1.818353163866394612e-03,1.485108611339081529e-02,-1.417172245493333177e-02,1.681765380969760248e-02,-2.612936956260534771e+01,1.657383631089716314e+00,5.949373689646542829e+01,-2.613005248260377655e+01,1.675248225304822203e+00,5.949608127880598119e+01,2.292122704414438299e-05,-1.865354289362917148e-03,-2.797882390827441607e-04,4.058948739306554873e-06,7.099121394598170888e-07,2.938825120097271265e-05,-8.392790401706410807e-07,1.048926573889074103e-08,9.274228599454518995e-08,-1.000209384676364444e+00,1.748555836575792222e-01,6.352334316458302155e+00,8.240480345604509482e-01,9.129061919459049435e-01,5.363046455241383681e-01,7.623468586886290588e-01,7.686425731640221803e-01,7.078924631009386736e-02,-1.531188597244098615e-01,-2.264592920606584570e-01
2.800000000002000888e-01,8.500000000000000000e+01,-2.685380862520792347e-02,-3.437213579845058709e-01,1.795012053670672287e+02,-3.227622807025909424e-02,-3.788765668869018555e-01,-1.148105263710021973e-01,8.418558662270841930e-01,9.236365155955230666e-01,5.437486711742119949e-01,7.676324692583992304e-01,-6.000846710812863215e-04,-2.626959382339921767e-03,-1.263177937151554152e-03,1.093070056712783580e-02,-2.024919254831942031e-02,1.797261654094175348e-02,-2.624856716587516559e+01,1.657527593397412957e+00,5.969047597128614768e+01,-2.624921017818194358e+01,1.675353722348883689e+00,5.969296514358563144e+01,1.557247995539768685e-05,-1.861102773809873928e-03,-2.863525893968908026e-04,9.611004102093097205e-06,4.588677794949144381e-07,2.036711571592917877e-05,-5.701789049320463444e-07,2.486628136321696510e-08,2.191559093542131854e-07,-1.004770528046435185e+00,1.748665746289614353e-01,6.373355434557405275e+00,8.251965153146815224e-01,9.135982228696553076e-01,5.367847331818136336e-01,7.626877436502222940e-01,7.692183805638046490e-01,7.105157435787418096e-02,-1.528322237263130545e-01,-2.270556206949980171e-01
2.899999999999636202e-01,8.500000000000000000e+01,-2.714121520244150432e-02,-3.436256911705667938e-01,1.795015541404946759e+02,-3.227622807025909424e-02,-3.788765668869018555e-01,-1.148105263710021973e-01,8.430043199669229326e-01,9.242360052895095546e-01,5.440384682319696630e-01,7.678979583658416264e-01,-7.413463865490279615e-04,-8.775293851852705544e-04,-7.155495545301865292e-04,4.916820667600941240e-03,-2.803714414905875141e-02,9.165450963230358655e-03,-2.637125766282147765e+01,1.657647342619790187e+00,5.988845726704559524e+01,-2.637177082710569920e+01,1.675435832069183339e+00,5.989106994659351102e+01,8.076652421362304993e-06,-1.856906640408782826e-03,-2.906832233959868441e-04,1.186326933591680117e-05,1.855285141754661610e-07,1.146019225360506501e-05,-2.969553819926437940e-07,3.073071204347579892e-08,2.699738897714122283e-07,-1.009461926266439935e+00,1.748751604931933490e-01,6.394506815565089042e+00,8.263449943266725217e-01,9.142842855304893490e-01,5.372525484249800476e-01,7.630237661058651977e-01,7.697941879635610274e-01,7.131390240564267069e-02,-1.525455877282292927e-01,-2.276519493293106544e-01
3.000000000001818989e-01,8.500000000000000000e+01,-2.742862120514269475e-02,-3.435300226150573843e-01,1.795019029134189168e+02,-3.227622807025909424e-02,-3.788765668869018555e-01,-1.148105263710021973e-01,8.441527737068138526e-01,9.248354949835232430e-01,5.443282652897406537e-01,7.681634474732961237e-01,2.920326781643558470e-04,-1.417225837763532847e-03,-3.482043988970242058e-04,2.641413703756007036e-02,-1.390385505015000883e-02,-8.319611452091557960e-03,-2.649753468641026544e+01,1.658722839715923714e+00,6.008793607161891259e+01,-2.649754164443312021e+01,1.675495940258226568e+00,6.009033563305001735e+01,5.120800688003666927e-06,-1.750906583253338629e-03,-2.617738164553402684e-04,-4.669241816758687600e-06,2.104882281983048176e-07,5.681206696293724412e-06,-1.852188059076406624e-07,-1.211030614528822511e-08,-1.060495079334248005e-07,-1.014276197595903151e+00,1.748814776391411363e-01,6.415782133721835478e+00,8.274934717087896185e-01,9.149647648396783683e-01,5.377088827386511394e-01,7.633552396532276019e-01,7.703699953633434960e-01,7.157623045342303980e-02,-1.522589517301324302e-01,-2.282482779636501036e-01
3.099999999999454303e-01,8.500000000000000000e+01,-2.771602663329484836e-02,-3.434343523179861357e-01,1.795022516858398376e+02,-3.227622807025909424e-02,-3.788765668869018555e-01,-1.148105263710021973e-01,8.439599995022609713e-01,9.257302612928032248e-01,5.456351400870738111e-01,7.688078375310318791e-01,1.443005044213786520e-03,-2.186086764305380983e-03,1.092600886571249569e-06,3.134503577966037818e-02,3.764287427322267256e-03,-1.458584947608287941e-02,-2.658717742104137471e+01,1.661045471400694584e+00,6.026813889585757522e+01,-2.658664166898412162e+01,1.675827400392028155e+00,6.027010628929394187e+01,2.634525542793868126e-06,-1.543083109563971175e-03,-2.097572807720957902e-04,-2.305184945344671736e-05,2.651553677996770314e-07,2.232785449105028042e-07,-9.026005355507114186e-08,-5.984054928263091764e-08,-5.225331514609846085e-07,-1.017686780617826914e+00,1.749160670309372057e-01,6.434975877138461087e+00,8.285554477322512046e-01,9.156590641635717898e-01,5.382200709724661580e-01,7.637068941297774360e-01,7.710333096032924161e-01,7.070121782670790722e-02,-1.524714796172501607e-01,-2.276236415884792530e-01
3.200000000001637090e-01,8.500000000000000000e+01,-2.746861873941216017e-02,-3.431626850250338312e-01,1.795025694735368234e+02,-3.227622807025909424e-02,-3.788765668869018555e-01,-1.148105263710021973e-01,8.436637872098478041e-01,9.266477999046254244e-01,5.470204538828615792e-01,7.694814491614215823e-01,-3.435898689768939612e-04,-4.189336907588216922e-04,3.010023522105012995e-05,-1.579507976116169407e-03,1.236787709929260820e-02,-3.623406375612763138e-03,-2.663810521977184465e+01,1.663555943517078584e+00,6.042823759027638175e+01,-2.663825390554887917e+01,1.676435380735558311e+00,6.042999577943555778e+01,2.139769355170724406e-07,-1.344365146874339223e-03,-1.874133350699504804e-04,5.483933369791559433e-06,4.748414898715956425e-08,-4.307429193298336289e-07,-6.497616276939141516e-09,1.424299839809439925e-08,1.240640391580213823e-07,-1.019662400260730850e+00,1.749795263696404257e-01,6.452047328459297404e+00,8.295298300963271920e-01,9.163677608622031734e-01,5.387876341992337004e-01,7.640793125938690755e-01,7.717033725396891253e-01,6.973849129189119145e-02,-1.527225039866688117e-01,-2.269048420350950335e-01
3.299999999999272404e-01,8.500000000000000000e+01,-2.715307645562311037e-02,-3.428685982417963851e-01,1.795028833155027144e+02,-3.227622807025909424e-02,-3.788765668869018555e-01,-1.148105263710021973e-01,8.433675749174482927e-01,9.275653385164057685e-01,5.484057676785865088e-01,7.701550607917807545e-01,-2.866924453127729644e-03,2.075406297823270945e-03,-2.540027166530688571e-05,-2.292578216302845057e-02,2.358281778777578455e-02,5.313620909997788730e-03,-2.665353912202181164e+01,1.666192682396418601e+00,6.056962028114491403e+01,-2.665467611757548028e+01,1.677302838667844576e+00,6.057124588548325050e+01,-2.271318376409376447e-06,-1.159503196984263415e-03,-1.747707689880713627e-04,4.571655263307201553e-05,-2.486084129901758085e-07,1.744762271736949945e-07,7.682313557677793924e-08,1.187549756864223009e-07,1.032221183769846982e-06,-1.020291011833699635e+00,1.750700624144396200e-01,6.467128051453967075e+00,8.304222679802043539e-01,9.170899264054652722e-01,5.394079366256854247e-01,7.644711559133411383e-01,7.723734354760553034e-01,6.877576475711838500e-02,-1.529735283560758607e-01,-2.261860424817433990e-01
3.400000000001455192e-01,8.500000000000000000e+01,-2.683753257707117285e-02,-3.425745132068356846e-01,1.795031971591160413e+02,-3.227622807025909424e-02,-3.788765668869018555e-01,-1.148105263710021973e-01,8.430713626250351256e-01,9.284828771282279680e-01,5.497910814743742769e-01,7.708286724221704578e-01,3.965388666589842598e-04,3.029768914206989149e-03,3.915877592829651588e-04,-1.454638762947271617e-02,3.148989026211342079e-02,5.439920756415060794e-03,-2.663841903629867147e+01,1.669022845291112889e+00,6.069392357628173329e+01,-2.663806516202426167e+01,1.678413538266890326e+00,6.069499873055616490e+01,-7.494157904472034462e-06,-9.797365901173520509e-04,-1.081284702797665099e-04,-6.317430932810235126e-06,-4.094476936763938185e-07,-6.522265723153493878e-06,2.659452938649779168e-07,-1.640770562994281573e-08,-1.423591203502519581e-07,-1.019655172643302299e+00,1.751859870860583701e-01,6.480341485725380934e+00,8.312380462304699291e-01,9.178246921469623842e-01,5.400775769418308947e-01,7.648811713207067653e-01,7.730434984124519016e-01,6.781303822230166922e-02,-1.532245527254945117e-01,-2.254672429283591795e-01
3.499999999999090505e-01,8.500000000000000000e+01,-2.652198710375050159e-02,-3.422804299201705480e-01,1.795035110043767190e+02,-3.227622807025909424e-02,-3.788765668869018555e-01,-1.148105263710021973e-01,8.427751503326356142e-01,9.294004157400083121e-01,5.511763952700992064e-01,7.715022840525296299e-01,3.660002186297292570e-03,3.984131530547307606e-03,8.085757902122747004e-04,-6.732694186118216330e-03,2.235044948437475351e-02,3.647383688161151029e-03,-2.659228709355332043e+01,1.671974267761206612e+00,6.080179707680410672e+01,-2.659044503313218399e+01,1.679754048763762997e+00,6.080234322705960182e+01,-1.271060548229272875e-05,-8.113010167104091558e-04,-4.379604442096552124e-05,-5.825407173442157286e-05,-5.697427200122476582e-07,-1.320570907531698306e-05,4.540590266383032152e-07,-1.512279478272296104e-07,-1.310136919493561597e-06,-1.017832358549591198e+00,1.753257120790321921e-01,6.491803429542862602e+00,8.319821088580227064e-01,9.185712454619185952e-01,5.407933731984072567e-01,7.653081868432275447e-01,7.737135613488181907e-01,6.685031168752886277e-02,-1.534755770949015607e-01,-2.247484433750075450e-01
3.600000000001273293e-01,8.500000000000000000e+01,-2.620644003559787980e-02,-3.419863483817664473e-01,1.795038248512847474e+02,-3.227622807025909424e-02,-3.788765668869018555e-01,-1.148105263710021973e-01,8.424789380402224470e-01,9.303179543518305117e-01,5.525617090658869746e-01,7.721758956829193332e-01,1.649969248208650943e-03,1.355998245685413172e-03,4.094420378778006555e-04,-3.382815575801888762e-03,9.637470246422549444e-03,1.359777015605328826e-04,-2.651454171005122618e+01,1.674980102917720037e+00,6.089394110271038585e+01,-2.651371449599915664e+01,1.681304934298981868e+00,6.089431643310976483e+01,-5.629873161419593472e-06,-6.598839972202266398e-04,-3.287653667809192900e-05,-2.623639852514902582e-05,-2.081905977838497771e-07,-6.608198093039917557e-06,2.020691894376527439e-07,-6.805915513900130348e-08,-5.888986261914350358e-07,-1.014895263874443732e+00,1.754877436419156889e-01,6.501622496415766506e+00,8.326590810195908521e-01,9.193288261341848733e-01,5.415523486596616198e-01,7.657511060922242985e-01,7.743836242852147889e-01,6.588758515271214700e-02,-1.537266014643202117e-01,-2.240296438216233255e-01
3.699999999998908606e-01,8.500000000000000000e+01,-2.656685527019269494e-02,-3.421458086445747782e-01,1.795039373909655467e+02,-3.227622807025909424e-02,-3.788765668869018555e-01,-1.148105263710021973e-01,8.421827257478228246e-01,9.312354929636109668e-01,5.539470228616119041e-01,7.728495073132785054e-01,-1.075093729660176085e-03,-1.757883404438287563e-03,-1.003491535841881301e-04,2.280257533205888674e-03,1.279676954417516103e-02,-5.426579754614455076e-03,-2.640913089462678087e+01,1.678084841434017926e+00,6.097158034302722740e+01,-2.640965559676088503e+01,1.683057206011652651e+00,6.097184902010866381e+01,3.114107251981546131e-06,-5.192624616389030379e-04,-3.084073049287837511e-05,1.707858440544255473e-05,2.229556900689951368e-07,1.771769134526968814e-06,-1.080780276281724206e-07,4.425852818869400732e-08,3.825909460921214807e-07,-1.010912085277527739e+00,1.756706775373348683e-01,6.509900546509014063e+00,8.332732895816022944e-01,9.200967229762386790e-01,5.423517185684962882e-01,7.662089033884253997e-01,7.750536872215809669e-01,6.492485861793922952e-02,-1.539776258337273718e-01,-2.233108442682716910e-01
3.800000000001091394e-01,8.500000000000000000e+01,-2.703804319183785582e-02,-3.423795915749694996e-01,1.795040169434056168e+02,-3.227622807025909424e-02,-3.788765668869018555e-01,-1.148105263710021973e-01,8.418865134554097684e-01,9.321530315754330553e-01,5.553323366573996722e-01,7.735231189436682087e-01,-1.112290937725248299e-03,-1.955679667133578079e-03,-7.435160043751587108e-04,2.350860087808899230e-03,2.359808575497992361e-02,-1.139641398035627293e-02,-2.627923645958020060e+01,1.681316130651034024e+00,6.103591564838396266e+01,-2.627993941942153810e+01,1.684997939652452370e+00,6.103584261095236485e+01,9.600069743108282822e-06,-3.846535923938917989e-04,-4.516547141936098977e-06,1.765205806705646277e-05,3.156142690822036801e-07,1.192001497999875903e-05,-3.441434645677552019e-07,4.568744252418395649e-08,3.946621899212577177e-07,-1.005946790230420884e+00,1.758731941902085538e-01,6.516733094002345794e+00,8.338287823578218738e-01,9.208742706671899647e-01,5.431888777652027489e-01,7.666806192017115995e-01,7.757237501579776762e-01,6.396213208312262477e-02,-1.542286502031459117e-01,-2.225920447148874715e-01
3.899999999998726707e-01,8.500000000000000000e+01,-2.750923145457775942e-02,-3.426133738678281970e-01,1.795040964977895896e+02,-3.227622807025909424e-02,-3.788765668869018555e-01,-1.148105263710021973e-01,8.415903011630101460e-01,9.330705701872135105e-01,5.567176504531246017e-01,7.741967305740273808e-01,-2.280269789542233375e-04,-1.153775917310942813e-03,-1.432407047180346777e-03,8.198106795439100147e-03,2.333254440764156307e-02,-1.660409785462173271e-02,-2.612565314664476546e+01,1.686461989486624624e+00,6.108788234953794216e+01,-2.612613305880066861e+01,1.687113614577663734e+00,6.108713770916325103e+01,1.530898016643979955e-05,-6.831527302988316564e-05,5.676347145739939773e-05,3.615174683667894676e-06,2.919458952695070923e-07,2.266033172396274495e-05,-5.540175834910848751e-07,9.343029266294496795e-09,8.066924406457551975e-08,-1.000059370729984076e+00,1.760940540293786660e-01,6.522209691489466721e+00,8.343293461063022720e-01,9.216608467946937333e-01,5.440613891046687245e-01,7.671653558849503840e-01,7.763938130943438543e-01,6.299940554834970730e-02,-1.544796745725530718e-01,-2.218732451615358370e-01
4.000000000000909495e-01,8.500000000000000000e+01,-2.798042005851060499e-02,-3.428471555231757395e-01,1.795041760541174654e+02,-3.227622807025909424e-02,-3.788765668869018555e-01,-1.148105263710021973e-01,8.388552475003263620e-01,9.342768053479847401e-01,5.590248300609913512e-01,7.749418870361153289e-01,-2.063499713514632791e-04,9.939070031204921829e-05,-1.581062517598735406e-03,2.285030981341694759e-02,7.868789627455108002e-03,-9.613569694855298928e-03,-2.588266791328160821e+01,1.703850866200642855e+00,6.110065093705917150e+01,-2.588313671158064011e+01,1.689824557169864239e+00,6.109772461923785869e+01,1.523018598580169358e-05,1.463845082691174297e-03,2.875267762993182017e-04,3.268198127712085337e-06,1.557373093730477321e-07,2.484032023057676920e-05,-5.536644442088872945e-07,8.427947662253853711e-09,7.279048142635225038e-08,-9.907579306219269633e-01,1.763770112476616969e-01,6.523340026037660166e+00,8.346212351326525170e-01,9.224744879985116164e-01,5.450264265262433350e-01,7.676668878248845695e-01,7.767746924863544455e-01,6.024774956373279977e-02,-1.556693074113911779e-01,-2.195826678756021000e-01
4.099999999998544808e-01,8.500000000000000000e+01,-2.845160900364885129e-02,-3.430809365409948075e-01,1.795042556123891870e+02,-3.227622807025909424e-02,-3.788765668869018555e-01,-1.148105263710021973e-01,8.226188955380946410e-01,9.370812495078436610e-01,5.664354106003872680e-01,7.760831119453964755e-01,-5.669798661988786903e-04,1.552561397378040241e-03,-1.490280342918835549e-03,1.840846931556055707e-02,-8.067381076487538730e-03,6.677473979997093634e-03,-2.518737492739866468e+01,1.733265454873725187e+00,6.091709303666495856e+01,-2.518792719022971127e+01,1.695472885726269086e+00,6.091075544973917744e+01,1.263036294812051169e-05,3.944642852591601426e-03,6.532203338135471543e-04,8.970705499582126862e-06,-3.077269970608263515e-08,2.323764043428307757e-05,-4.614830280874065998e-07,2.300651520539851134e-08,1.995400491774045569e-07,-9.641466191507219730e-01,1.769665253469199229e-01,6.503377466924945338e+00,8.338471680655251683e-01,9.234165220871726198e-01,5.464071564565949890e-01,7.682096754930659577e-01,7.755546668979305114e-01,4.759267368763009376e-02,-1.620550276573791137e-01,-2.085908112500773348e-01
4.200000000000727596e-01,8.500000000000000000e+01,-2.812316228572336180e-02,-3.438202220455796043e-01,1.795041190377233988e+02,-3.227622807025909424e-02,-3.788765668869018555e-01,-1.148105263710021973e-01,8.063825435751245108e-01,9.398856936678301466e-01,5.738459911401201374e-01,7.772243368547295805e-01,-1.133906439381815283e-03,6.299026572276272481e-04,-1.173224592219466230e-03,-4.775105781678484068e-03,-2.191683299589290007e-02,6.946378971396536574e-03,-2.406903505921385289e+01,1.763883365210029863e+00,6.054861461161203096e+01,-2.406977337744687517e+01,1.703857397198019985e+00,6.053913828366248140e+01,1.072623646637905046e-05,6.265177069426790951e-03,9.930410550218458660e-04,1.792206510738708776e-05,4.444824220871873825e-08,1.833818489564979198e-05,-3.868643082669898884e-07,4.556676422196838308e-08,3.983640977823848126e-07,-9.213457844941412844e-01,1.778416334047193126e-01,6.463700302530018149e+00,8.320758916271647765e-01,9.244786686164407907e-01,5.481767696325544614e-01,7.687910581831985946e-01,7.743346413094511771e-01,3.493759781095190364e-02,-1.684407479036575395e-01,-1.975989546240525252e-01
4.299999999998362910e-01,8.500000000000000000e+01,-2.762661826605367771e-02,-3.446657704495404428e-01,1.795039370219581940e+02,-3.227622807025909424e-02,-3.788765668869018555e-01,-1.148105263710021973e-01,7.901461916128927898e-01,9.426901378276890675e-01,5.812565716795160542e-01,7.783655617640107272e-01,-1.739195582701929263e-03,-7.345611774930665798e-04,-8.140914023501375505e-04,-9.766192515363541701e-03,-2.724156677320807227e-02,-6.267962953322423793e-03,-2.255600700434532158e+01,1.795604610441806859e+00,6.000781018408121525e+01,-2.255694877829079914e+01,1.714779310948153723e+00,5.999541378249005419e+01,8.903454359672504878e-06,8.435978857668056594e-03,1.310111115292393992e-03,2.746070987444637997e-05,1.690825991589717596e-07,1.282937670215115210e-05,-3.148238709475713828e-07,6.900513426173744022e-08,6.103145071553961428e-07,-8.634376928976841281e-01,1.789816126057357792e-01,6.405647539014610814e+00,8.293717188565246090e-01,9.256531811728780923e-01,5.503101858011202330e-01,7.694085467859507199e-01,7.731146157210271319e-01,2.228252193484919763e-02,-1.748264681496454753e-01,-1.866070979985275380e-01
4.400000000000545697e-01,8.500000000000000000e+01,-2.713007152781441236e-02,-3.455113173156155737e-01,1.795037549989156958e+02,-3.227622807025909424e-02,-3.788765668869018555e-01,-1.148105263710021973e-01,7.739098396499226595e-01,9.454945819876754420e-01,5.886671522192489237e-01,7.795067866733438322e-01,-6.170801476689535565e-04,1.213134838946383978e-04,-1.123842778863443255e-03,7.756698592043886377e-03,-1.437146654327121041e-02,-8.205946778903627781e-03,-2.067613315197943180e+01,1.828343513306706303e+00,5.930708555481607647e+01,-2.067666586656418914e+01,1.728043544195786874e+00,5.929171404646091048e+01,1.104740213839677164e-05,1.046878653385734798e-02,1.623403052825816897e-03,9.733355651047137397e-06,9.333818202156880414e-08,1.758034799622830427e-05,-3.894425757457686716e-07,2.410156389127273960e-08,2.164369709068460909e-07,-7.914639912102192643e-01,1.803661289495552822e-01,6.330514166282585009e+00,8.257948150506786433e-01,9.269328129326204202e-01,5.527839422104663392e-01,7.700598127221626177e-01,7.718945901325476866e-01,9.627446058171063026e-03,-1.812121883959238455e-01,-1.756152413725027284e-01
4.499999999998181011e-01,8.500000000000000000e+01,-2.663352207068857280e-02,-3.463568626439120224e-01,1.795035729685959893e+02,-3.227622807025909424e-02,-3.788765668869018555e-01,-1.148105263710021973e-01,7.576734876876909386e-01,9.482990261475343630e-01,5.960777327586448404e-01,7.806480115826250898e-01,8.518436992460466130e-04,1.422962156409107292e-03,-1.567885100948104675e-03,2.196333651230536130e-02,-3.039321819625658352e-03,3.710260590399955868e-03,-1.845502574839516541e+01,1.861982198428350443e+00,5.845793662633037968e+01,-1.845503160584780744e+01,1.743459800527755066e+00,5.843971968035830855e+01,1.414268444031299521e-05,1.237094603987611181e-02,1.920915499311286363e-03,-1.342297875701349406e-05,-2.620092486642812215e-08,2.438757346604970746e-05,-4.954933817219830191e-07,-3.265582199459130509e-08,-2.988426344758226842e-07,-7.064240033333646362e-01,1.819753542337108343e-01,6.239547705768933028e+00,8.214014652653913728e-01,9.283107844413075460e-01,5.555760892923279348e-01,7.707426775897586735e-01,7.706745645441237524e-01,-3.027629817931587475e-03,-1.875979086419118369e-01,-1.646233847469776856e-01
4.600000000000363798e-01,8.500000000000000000e+01,-2.613696989426875922e-02,-3.472024064346902472e-01,1.795033909309990179e+02,-3.227622807025909424e-02,-3.788765668869018555e-01,-1.148105263710021973e-01,7.414371357247209193e-01,9.511034703075208485e-01,6.034883132983777099e-01,7.817892364919581949e-01,1.588452049474765176e-03,2.053150968015955702e-03,-2.198150891169231135e-03,1.692137452356107588e-02,-4.381391534270463912e-04,1.273463200839162514e-02,-1.591716739603161912e+01,1.896407776164265035e+00,5.747150459895238583e+01,-1.591702093021132214e+01,1.760844594862648105e+00,5.745064927902754448e+01,2.009460679382395239e-05,1.414964821931636273e-02,2.193096276749028056e-03,-2.500615397943602080e-05,-5.358611496066338077e-08,3.416218676855312683e-05,-6.948897230106457202e-07,-5.959363084034177606e-08,-5.578114452690892292e-07,-6.092737200966009681e-01,1.837900562267951177e-01,6.133945831008210448e+00,8.162443245633882460e-01,9.297807534720469169e-01,5.586660930723186258e-01,7.714551034783873051e-01,7.694545389556444182e-01,-1.568270569460972208e-02,-1.939836288881902071e-01,-1.536315281209529870e-01
4.699999999997999112e-01,8.500000000000000000e+01,-2.613030937933513709e-02,-3.473122016068930784e-01,1.795037753645636940e+02,-3.227622807025909424e-02,-3.788765668869018555e-01,-1.148105263710021973e-01,7.252007837624891984e-01,9.539079144673797694e-01,6.108988938377736266e-01,7.829304614012393415e-01,1.970395164393856820e-03,2.341591899212310587e-03,-2.751885629109667494e-03,1.414365317278940427e-03,8.765479751666105292e-04,1.159955637597152173e-02,-1.308662172448340755e+01,1.931521949898780788e+00,5.635853223266441603e+01,-1.308646525705611197e+01,1.780020256671612788e+00,5.633524038284695479e+01,2.588387344932434521e-05,1.581325795120910871e-02,2.444778731106761818e-03,-3.099071733622613811e-05,-5.355090341887805477e-08,4.276087854661417162e-05,-8.824357798615215454e-07,-7.213024943555716740e-08,-6.932144203648897145e-07,-5.009253621735008100e-01,1.857916662641621863e-01,6.014854881506900952e+00,8.103726521237413216e-01,9.313367868272635075e-01,5.620347438739256019e-01,7.721951839086733660e-01,7.682345133672204840e-01,-2.833778157071242809e-02,-2.003693491341781430e-01,-1.426396714954278888e-01
4.800000000000181899e-01,8.500000000000000000e+01,-2.625379446592748800e-02,-3.472265351366099484e-01,1.795043102893323237e+02,-3.227622807025909424e-02,-3.788765668869018555e-01,-1.148105263710021973e-01,7.089644317995190681e-01,9.567123586273662550e-01,6.183094743775064961e-01,7.840716863105724466e-01,1.674183457526602420e-03,1.675517596088673278e-03,-1.274853157911793287e-04,-2.644496433980026481e-03,-2.512172903213634977e-03,8.663125567782585523e-03,-9.986753430350669092e+00,1.967224389698366993e+00,5.512879546999539571e+01,-9.986053841828685051e+00,1.800820244836113471e+00,5.510374336561012143e+01,-4.840035663216660140e-07,1.736883959338814468e-02,2.673517721223104930e-03,-2.630962399084977611e-05,-1.902444996969897986e-07,1.859848939592799327e-06,1.469099364751095344e-08,-5.961935434921753577e-08,-5.906394652040261148e-07,-3.822474130215360866e-01,1.879623279073215358e-01,5.883369116027505896e+00,8.038325302524542693e-01,9.329733339591987917e-01,5.656640709106347531e-01,7.729611353558510922e-01,7.670144877787410387e-01,-4.099285744739061821e-02,-2.067550693804565687e-01,-1.316478148694030792e-01
4.899999999997817213e-01,8.500000000000000000e+01,-2.637727875314799589e-02,-3.471408675295222790e-01,1.795048452139301389e+02,-3.227622807025909424e-02,-3.788765668869018555e-01,-1.148105263710021973e-01,6.927280798372873472e-01,9.595168027872251759e-01,6.257200549169024129e-01,7.852129112198535932e-01,1.377971750672818147e-03,1.009443292995325326e-03,2.496914997407964631e-03,4.834226584583137601e-03,-1.967804602407560114e-03,6.896942359615525382e-03,-6.638610309129278519e+00,1.998895327580910042e+00,5.379236743791771147e+01,-6.637342949038233186e+00,1.823074914521209289e+00,5.376591578315753850e+01,-2.779315366133802424e-05,1.835176576784975505e-02,2.863685546806923454e-03,-2.163810688188664048e-05,-2.965691793470056297e-07,-3.898210740300900621e-05,9.190931551525468914e-07,-4.758571113091661552e-08,-4.879819010091688338e-07,-2.540650339131129698e-01,1.902849297941605067e-01,5.740530573616155152e+00,7.966670692687750632e-01,9.346852022916375402e-01,5.695372623860919248e-01,7.737512893200374497e-01,7.657944621903172155e-01,-5.364793332349332422e-02,-2.131407896264445045e-01,-1.206559582438783140e-01
5.000000000000000000e-01,8.500000000000000000e+01,-2.650076224100924790e-02,-3.470551987856223541e-01,1.795053801383571681e+02,-3.227622807025909424e-02,-3.788765668869018555e-01,-1.148105263710021973e-01,6.800290628421626904e-01,9.603750972329565538e-01,6.321911131962243413e-01,7.862140926826799436e-01,1.246037567779914200e-03,-5.705927470088961208e-04,7.871622435062352457e-04,9.813693137833078353e-03,6.556544773082225060e-03,4.147131567458054585e-03,-3.183608912824606119e+00,2.000436336908832935e+00,5.237943243027746121e+01,-3.182896405548087504e+00,1.845552791499681655e+00,5.235250028347371654e+01,-7.981247005968874472e-06,1.616614044933716715e-02,2.888182125342431735e-03,-1.955311319327206437e-05,1.744956289278953811e-08,-1.222185099531251962e-05,2.609179408920872401e-07,-4.161439263338264116e-08,-4.431849087593399883e-07,-1.218353060491541573e-01,1.926312479029418656e-01,5.589621543034178686e+00,7.891447325744213037e-01,9.363420210706241420e-01,5.735779981242166148e-01,7.745550530838523073e-01,7.647023414885057990e-01,-6.316152745216913056e-02,-2.171845069386247329e-01,-1.109994770981074241e-01
5.100000000002182787e-01,8.500000000000000000e+01,-2.662424492950703561e-02,-3.469695289049137266e-01,1.795059150626132123e+02,-3.227622807025909424e-02,-3.788765668869018555e-01,-1.148105263710021973e-01,6.870493510343510524e-01,9.503843427465278326e-01,6.334246900518964996e-01,7.864345848734261013e-01,1.134076112116967541e-03,-2.261747508720804347e-03,-1.449533301412888817e-03,5.353795010058870138e-03,7.529679962541355707e-03,3.384259801166096711e-03,-3.108677638311337921e-01,1.972322514958145367e+00,5.101422785359824985e+01,-3.108645628064868327e-01,1.862251110304769197e+00,5.098798350449359162e+01,1.825242948338255423e-05,1.148848900611496200e-02,2.779793443486075575e-03,-1.778525403807279753e-05,3.544312416026787980e-07,2.269238432830471470e-05,-5.897046653668817608e-07,-3.665336350954539208e-08,-4.041778964453590192e-07,-1.189930460132182510e-02,1.943743304627363333e-01,5.443933394005034287e+00,7.825602936045548130e-01,9.372476527326590867e-01,5.774376917225165773e-01,7.753211999053746251e-01,7.643232421765503437e-01,-5.516254844532358925e-02,-2.081724432668531910e-01,-1.087872094277781421e-01
5.199999999999818101e-01,8.500000000000000000e+01,-2.687626805202492086e-02,-3.469083972841943697e-01,1.795063721432033788e+02,-3.227622807025909424e-02,-3.788765668869018555e-01,-1.148105263710021973e-01,6.940696392262201142e-01,9.403935882605534147e-01,6.346582669075125915e-01,7.866550770641623780e-01,1.767808984044673057e-03,-2.451577613013433340e-03,-7.031578479645881306e-04,-7.104209411833763491e-03,1.275721069460256617e-03,5.801915473206538561e-03,2.020253152174564804e+00,1.941741047913984941e+00,4.969156545916249712e+01,2.020718765590103327e+00,1.873588235447630312e+00,4.966630550525891152e+01,1.021250637434125485e-05,7.113239826617994040e-03,2.686539657158056645e-03,-2.770804321038068067e-05,3.296522215335452598e-07,1.106902698628484160e-05,-3.272714662959473453e-07,-5.533156960876167294e-08,-6.298782019937290069e-07,7.734932867243382582e-02,1.955576261500673596e-01,5.302819102218466085e+00,7.768532645071708487e-01,9.374505435997491087e-01,5.811280191344219137e-01,7.760521558146261656e-01,7.639441428646120968e-01,-4.716356943884175701e-02,-1.991603795954915435e-01,-1.065749417575493352e-01
5.300000000002000888e-01,8.500000000000000000e+01,-2.717333657302511279e-02,-3.468558631486658994e-01,1.795068019441703484e+02,-3.227622807025909424e-02,-3.788765668869018555e-01,-1.148105263710021973e-01,7.010899274184084762e-01,9.304028337741246935e-01,6.358918437631847498e-01,7.868755692549085357e-01,2.633807302261512856e-03,-2.173782004446130935e-03,9.723708671252272694e-04,-1.908934673761569084e-02,-1.649390925988065883e-03,9.999480894319089097e-03,3.849434504406373136e+00,1.908890411124223530e+00,4.840674672171640935e+01,3.850734760433744963e+00,1.879951548847870635e+00,4.838252221692196287e+01,-8.791849338106922957e-06,3.020390365905073135e-03,2.602370356717299913e-03,-4.125918050558710686e-05,2.106004637554529678e-07,-1.500924005413163404e-05,2.796677084287310330e-07,-7.989381063005248721e-08,-9.361269565507686434e-07,1.473988996297093124e-01,1.962215424490888482e-01,5.165750813954510079e+00,7.719670584742507335e-01,9.369960155444723160e-01,5.846599032959306497e-01,7.767501903796393270e-01,7.635650435526566415e-01,-3.916459043199621570e-02,-1.901483159237200016e-01,-1.043626740872199421e-01
5.399999999999636202e-01,8.500000000000000000e+01,-2.747040469724836703e-02,-3.468033267995893620e-01,1.795072317448925503e+02,-3.227622807025909424e-02,-3.788765668869018555e-01,-1.148105263710021973e-01,7.081102156102775380e-01,9.204120792881502755e-01,6.371254206188007307e-01,7.870960614456448123e-01,1.102287138127338532e-03,-1.067115326026503311e-03,6.720956838367541991e-04,-1.980735518004536622e-02,-5.090127104022224708e-03,1.316074742827072659e-02,5.214609380769454461e+00,1.873928638745122610e+00,4.715592016624784577e+01,5.215225321171387485e+00,1.881695239444026946e+00,4.713263040128408932e+01,-6.524803559493822406e-06,-8.107100077577945917e-04,2.497408070164565570e-03,-1.725862145039433525e-05,9.615755832587111557e-08,-1.039429995989321838e-05,2.063816022894757731e-07,-3.243054102123823640e-08,-3.899726176021041667e-07,1.996290425740903096e-01,1.964036664680243183e-01,5.032301475363771814e+00,7.678487381515908261e-01,9.359264674952585406e-01,5.880435626899583879e-01,7.774174267971601937e-01,7.631859442407182836e-01,-3.116561142551432795e-02,-1.811362522523584095e-01,-1.021504064169910797e-01
5.500000000001818989e-01,8.500000000000000000e+01,-2.776747242473022806e-02,-3.467507882369599836e-01,1.795076615453698992e+02,-3.227622807025909424e-02,-3.788765668869018555e-01,-1.148105263710021973e-01,7.151305038024659000e-01,9.104213248017215543e-01,6.383589974744728890e-01,7.873165536363909700e-01,-1.112354493249343356e-03,2.756945015775932005e-04,-2.056983358243797333e-04,-8.844709203009214551e-03,-9.026156471635361431e-03,3.800806239581249694e-03,6.148124267433913381e+00,1.837048070486895224e+00,4.593585520170515224e+01,6.147617755354254143e+00,1.879158900506396002e+00,4.591343245634260484e+01,2.045319427394729198e-06,-4.395365414112702498e-03,2.390479348637704685e-03,1.740742233815705591e-05,-2.399514072921276442e-08,3.182791483516856924e-06,-6.440930495314846283e-08,3.176726497753096639e-08,3.908832793125398579e-07,2.353192778601653767e-01,1.961389687663000758e-01,4.902129045976069577e+00,7.644487802746059435e-01,9.342815639457535681e-01,5.912885567786567709e-01,7.780558513325765979e-01,7.628068449287628283e-01,-2.316663241866878664e-02,-1.721241885805868677e-01,-9.993813874666179764e-02
5.599999999999454303e-01,8.500000000000000000e+01,-2.794085936214317153e-02,-3.467907026153136396e-01,1.795080029505573691e+02,-3.227622807025909424e-02,-3.788765668869018555e-01,-1.148105263710021973e-01,7.221507919943350728e-01,9.004305703157471363e-01,6.395925743300889810e-01,7.875370458271272467e-01,-4.543242744950065680e-04,6.226057251484058740e-04,-2.667068543584164963e-04,-4.704912749392511050e-03,-6.733279355427736722e-03,-1.420038743833135914e-02,6.679174385105484113e+00,1.798437476092617393e+00,4.474417043438695885e+01,6.678927716675809201e+00,1.872653718357903507e+00,4.472239241792227915e+01,2.411389385176320325e-06,-7.746339689858373206e-03,2.320942772716943266e-03,7.106236963731893402e-06,-6.327203219922022616e-08,4.114979379956373297e-06,-7.562148044807814621e-08,1.260460412344743261e-08,1.582425507316819938e-07,2.556568264614473840e-01,1.954599916099405421e-01,4.774962950853213428e+00,7.617208554833140299e-01,9.320984113068789823e-01,5.944038285056343351e-01,7.786673221510318488e-01,7.624277456168246925e-01,-1.516765341218689889e-02,-1.631121249092251646e-01,-9.772587107643299076e-02
5.700000000001637090e-01,8.500000000000000000e+01,-2.771716719410903529e-02,-3.471274460036124498e-01,1.795080605602276762e+02,-3.227622807025909424e-02,-3.788765668869018555e-01,-1.148105263710021973e-01,7.291710801865233238e-01,8.904398158293184151e-01,6.408261511857611392e-01,7.877575380178734044e-01,2.037059442892537667e-04,9.695169487349942312e-04,-3.277153728952276785e-04,-1.101001342143132986e-02,2.023281564976132322e-03,-1.563156042912597007e-02,6.837933173460157832e+00,1.758218526168974671e+00,4.357871484423396424e+01,6.837946140490045899e+00,1.862469556211444832e+00,4.355753587881491029e+01,2.775042275750582834e-06,-1.088119154521257140e-02,2.256278627091193225e-03,-3.184644012602264522e-06,-1.026488374187560021e-07,5.047495110200534842e-06,-8.675184796411366187e-08,-5.494655837689825381e-09,-7.017989076095744106e-08,2.617437531276538554e-01,1.943970229419950679e-01,4.650592470689149494e+00,7.596216223378806642e-01,9.294117228851828116e-01,5.973977440571107689e-01,7.792535775789978247e-01,7.620486463048691261e-01,-7.168674405341413092e-03,-1.541000612374536782e-01,-9.551360340610359767e-02
5.799999999999272404e-01,8.500000000000000000e+01,-2.749347535457900837e-02,-3.474641896298166222e-01,1.795081181685956153e+02,-3.227622807025909424e-02,-3.788765668869018555e-01,-1.148105263710021973e-01,7.361913683783924967e-01,8.804490613433439972e-01,6.420597280413771202e-01,7.879780302086096810e-01,-1.327000250230737010e-04,8.927879629242338683e-04,-4.154611514369601385e-04,-1.496100809012862812e-02,1.415945104357525970e-02,-2.541219865074462961e-03,6.651559753858572677e+00,1.716520865538026408e+00,4.243788554057258722e+01,6.651410073693214464e+00,1.848876794326131057e+00,4.241735758549471313e+01,3.773792555762921698e-06,-1.381468773291892431e-02,2.185293187823559701e-03,2.073536586498797454e-06,-9.078017929904515119e-08,6.409935755140563877e-06,-1.178531331867845119e-07,3.482734880516464124e-09,4.512686068834570474e-08,2.546035022063715125e-01,1.929782572383885730e-01,4.528856808329349448e+00,7.581105346185583738e-01,9.262539732214731814e-01,6.002781300587256563e-01,7.798162438330303869e-01,7.616695469929308793e-01,8.303046011405301741e-04,-1.450879975660920307e-01,-9.330133573587484630e-02
5.900000000001455192e-01,8.500000000000000000e+01,-2.726978384350618734e-02,-3.478009334939682895e-01,1.795081757756612717e+02,-3.227622807025909424e-02,-3.788765668869018555e-01,-1.148105263710021973e-01,7.432116565705808586e-01,8.704583068569152760e-01,6.432933048970492784e-01,7.881985223993558387e-01,-6.174372023301474052e-04,7.528683322397450089e-04,-5.071950894267921416e-04,-1.730130297736453757e-02,2.142960675248152189e-02,1.930648494617629547e-04,6.144533105887965974e+00,1.673477483164437674e+00,4.132064376840887832e+01,6.144159027576215237e+00,1.832126811689507750e+00,4.130073914096144705e+01,4.826575511890808755e-06,-1.655911791225737548e-02,2.117154920995928391e-03,9.643102722198754136e-06,-7.131947950453894241e-08,7.834460125543736919e-06,-1.506620333383343571e-07,1.577906245469615524e-08,2.068314598923342330e-07,2.351868834695003407e-01,1.912299443136412924e-01,4.409636604324083109e+00,7.571496610535980443e-01,9.226555424754528945e-01,6.030523083734411482e-01,7.803568422500775092e-01,7.612904476809753129e-01,8.829283607986071480e-03,-1.360759338943204888e-01,-9.108906806554556423e-02
5.999999999999090505e-01,8.500000000000000000e+01,-2.704609266088433064e-02,-3.481376775960484671e-01,1.795082333814245885e+02,-3.227622807025909424e-02,-3.788765668869018555e-01,-1.148105263710021973e-01,7.502319447624499205e-01,8.604675523709408580e-01,6.445268817526653704e-01,7.884190145900921154e-01,-1.279062069642888325e-03,1.174123628902077558e-03,-4.439581484227939599e-04,-1.609272706741845041e-02,2.007014990994408082e-02,-9.683034155884943928e-03,5.339894908291372921e+00,1.641456617774940341e+00,4.022568989649671778e+01,5.339278324286179433e+00,1.812453697928060992e+00,4.020688339282347101e+01,3.752270561778341426e-06,-1.784788978489046385e-02,2.000692799088347237e-03,1.996636362430665148e-05,-1.237533811110223443e-07,6.836700717556807346e-06,-1.169548527467974736e-07,3.185135924371484149e-08,4.211882362652714839e-07,2.043775593443997174e-01,1.891765270466764237e-01,4.292846703913722806e+00,7.567035166732859475e-01,9.186448514987889391e-01,6.057271286551947354e-01,7.808767960514797490e-01,7.609113483690370661e-01,1.682826261446790372e-02,-1.270638702229588413e-01,-8.887680039531664633e-02
6.100000000001273293e-01,8.500000000000000000e+01,-2.685190104747391115e-02,-3.484134839309020459e-01,1.795083236966805487e+02,-3.227622807025909424e-02,-3.788765668869018555e-01,-1.148105263710021973e-01,7.538557609751559418e-01,8.567608214860314986e-01,6.428302016997455848e-01,7.887107201591432304e-01,-2.007446202921006791e-03,1.807172217726565845e-03,-3.222335753988156198e-04,1.245213686746280942e-03,1.141004457408567596e-02,-1.486032828934782772e-02,4.415950267937291507e+00,1.628771043015890374e+00,3.920722467643278719e+01,4.415082680772975721e+00,1.792770901933541383e+00,3.919018166428281802e+01,1.946673808433345652e-06,-1.711748584469754628e-02,1.814087172280344756e-03,3.132333675302874685e-05,-2.030707582047300087e-07,4.927397137495985781e-06,-6.040104604497925684e-08,4.880138259919709969e-08,6.499768160290037763e-07,1.690010832667419027e-01,1.871221112194392799e-01,4.184294385331758903e+00,7.565198563224201367e-01,9.146537638248722901e-01,6.081200177004298935e-01,7.813820294362164853e-01,7.605393760800189806e-01,2.148772897426104445e-02,-1.243927894851366012e-01,-8.953783030114936814e-02
6.199999999998908606e-01,8.500000000000000000e+01,-2.677352686477784197e-02,-3.484500413300057886e-01,1.795085424375128298e+02,-3.227622807025909424e-02,-3.788765668869018555e-01,-1.148105263710021973e-01,7.557337751637704937e-01,8.562841072739463266e-01,6.396273562869211338e-01,7.890390297280747145e-01,-3.759131372239820322e-04,1.060532518295032641e-03,-6.795787163988659205e-04,1.432446350509032455e-02,1.212933461372042807e-03,-9.283958894855398256e-03,3.459616783738129531e+00,1.623332434527513968e+00,3.828963278762805089e+01,3.459308401731699956e+00,1.774470737971359791e+00,3.827419872486446906e+01,6.131970287901207704e-06,-1.577510982551438498e-02,1.637275414898107509e-03,5.863745541381493686e-06,-1.022358019227452346e-07,1.048344411396822103e-05,-1.914309846842304986e-07,8.942986718336741432e-09,1.198474117488382273e-07,1.324158360608731488e-01,1.852120411354736818e-01,4.086496060275637277e+00,7.564691595784889255e-01,9.108893286912340681e-01,6.101520209595023836e-01,7.818758524706522772e-01,7.601710671131782782e-01,2.443067066548887389e-02,-1.249810027756647068e-01,-9.167574821136054153e-02
6.300000000001091394e-01,8.500000000000000000e+01,-2.669515282085865512e-02,-3.484865990315856865e-01,1.795087611782942645e+02,-3.227622807025909424e-02,-3.788765668869018555e-01,-1.148105263710021973e-01,7.576117893524705327e-01,8.558073930618396163e-01,6.364245108739510215e-01,7.893673392970210756e-01,1.367078998241676255e-03,2.487300355153427948e-04,-1.059550356627605300e-03,1.099254227752748331e-03,-3.207059825787900685e-03,-2.477030524447669611e-03,2.472476551076084217e+00,1.618357589203212044e+00,3.746647207275564284e+01,2.472768754466006413e+00,1.757462657720638699e+00,3.745252118612940961e+01,1.046225699313312301e-05,-1.451919820011930186e-02,1.473561437475977721e-03,-2.131998543461781768e-05,7.241106843182318101e-09,1.638985373185896210e-05,-3.272693057480525004e-07,-3.190276113426391818e-08,-4.297466059249270102e-07,9.465294968410375986e-02,1.834369234062770138e-01,3.998766459406668972e+00,7.565428512176056719e-01,9.073369285922000538e-01,6.118464130448115768e-01,7.823590010426807462e-01,7.598027581463205893e-01,2.737361235685048522e-02,-1.255692160662195689e-01,-9.381366612166908148e-02
6.399999999998726707e-01,8.500000000000000000e+01,-2.661677891572322013e-02,-3.485231570356385200e-01,1.795089799190248243e+02,-3.227622807025909424e-02,-3.788765668869018555e-01,-1.148105263710021973e-01,7.594898035410850845e-01,8.553306788497544444e-01,6.332216654611265705e-01,7.896956488659525597e-01,2.736023851399899554e-04,4.162470469403343381e-04,-8.311361932550177887e-04,-1.079978990951895729e-02,-2.831231450468789466e-03,4.974003697583341413e-04,1.456504381281660931e+00,1.613796823328822017e+00,3.673134243627610118e+01,1.456415061207275929e+00,1.741664692033514816e+00,3.671911316017676796e+01,7.933758560962755207e-06,-1.334630305423950385e-02,1.292944804404722384e-03,-4.266355618254104883e-06,-2.018983046667495250e-08,1.284710280517662257e-05,-2.483980124681263264e-07,-6.277710597044159015e-09,-8.491432300220300923e-08,5.574883625085935712e-02,1.817879121887822080e-01,3.920461238136912385e+00,7.567329090579149042e-01,9.039828887491110354e-01,6.132249675188499172e-01,7.828321635805648437e-01,7.594344491794796648e-01,3.031655404807831466e-02,-1.261574293567476746e-01,-9.595158403188025487e-02
6.500000000000909495e-01,8.500000000000000000e+01,-2.653840514936418177e-02,-3.485597153421675642e-01,1.795091986597045945e+02,-3.227622807025909424e-02,-3.788765668869018555e-01,-1.148105263710021973e-01,7.613678177297850125e-01,8.548539646376477341e-01,6.300188200481564582e-01,7.900239584348990318e-01,-9.525970931166566520e-04,6.295879685389334365e-04,-5.742546945685728576e-04,-5.239668693738084616e-03,3.108482228203511620e-04,2.111966057372105174e-03,4.118215446776093414e-01,1.609638311328969396e+00,3.607889939478125285e+01,4.113027187938849694e-01,1.726994875010629205e+00,3.606830250857357356e+01,5.168250629183637251e-06,-1.224916955420561615e-02,1.122262555216567339e-03,1.485337237532527358e-05,-5.412013168236452408e-08,8.863631077672241038e-06,-1.619412184628540377e-07,2.153852524977646954e-08,2.922485996338253707e-07,1.574389582391333420e-02,1.802566831449543550e-01,3.850974819743159472e+00,7.570318282922668951e-01,9.008144163110100022e-01,6.143080537013992926e-01,7.832959841137548951e-01,7.590661402126220869e-01,3.325949573943992599e-02,-1.267456426473026476e-01,-9.808950194218862828e-02
6.599999999998544808e-01,8.500000000000000000e+01,-2.644401296440902771e-02,-3.485969834884650731e-01,1.795094051877786399e+02,-3.227622807025909424e-02,-3.788765668869018555e-01,-1.148105263710021973e-01,7.632458319183995643e-01,8.543772504255625622e-01,6.268159746353320072e-01,7.903522680038305159e-01,-1.155591654025050347e-03,7.859070888039434424e-04,-8.504823228604195583e-04,2.846050263202261777e-03,2.128914759097366542e-03,1.684546618076977927e-03,-6.607722848506598634e-01,1.605861715636524911e+00,3.550399038976390642e+01,-6.614370392275671362e-01,1.713378274792137113e+00,3.549476042881067883e+01,7.667234245016858147e-06,-1.122210602559771397e-02,9.719902451060414162e-04,1.801899783126145456e-05,-6.215121152973767049e-08,1.313214302319307684e-05,-2.406812558502434220e-07,2.580378828866727256e-08,3.508698801301755763e-07,-2.531857095510359201e-02,1.788354077943908882e-01,3.789738312569502554e+00,7.574325881211406708e-01,8.978195434764705274e-01,6.151147272334147598e-01,7.837510651362986636e-01,7.586978312457811624e-01,3.620243743066775544e-02,-1.273338559378307533e-01,-1.002274198523998017e-01
6.700000000000727596e-01,8.500000000000000000e+01,-2.626954732748097709e-02,-3.486377988563912900e-01,1.795095506676362049e+02,-3.227622807025909424e-02,-3.788765668869018555e-01,-1.148105263710021973e-01,7.651238461070994923e-01,8.539005362134557409e-01,6.236131292223618949e-01,7.906805775727768770e-01,-1.132914143022670803e-03,9.296498152062756962e-04,-1.244289371678527784e-03,8.199292692993671514e-03,-1.736708707345940936e-03,-1.819104938412725988e-03,-1.759874912240481093e+00,1.602434897904428279e+00,3.500147325405838217e+01,-1.760621033849118833e+00,1.700744615134862858e+00,3.499348363427436936e+01,1.124692160478266762e-05,-1.026113088624479482e-02,8.334807616660344382e-04,1.766700107702037198e-05,-6.370404584494441911e-08,1.922174481578323841e-05,-3.537868326207400382e-07,2.503579806041610904e-08,3.408247639048419634e-07,-6.739327395009619970e-02,1.775167284034810944e-01,3.736217504967310532e+00,7.579286205375548313e-01,8.949870742836604220e-01,6.156628148000952150e-01,7.841979702855880197e-01,7.583295222789234735e-01,3.914537912202936676e-02,-1.279220692283856153e-01,-1.023653377627082306e-01
6.799999999998362910e-01,8.500000000000000000e+01,-2.609508179115446747e-02,-3.486786146706989942e-01,1.795096961473679471e+02,-3.227622807025909424e-02,-3.788765668869018555e-01,-1.148105263710021973e-01,7.670018602957140441e-01,8.534238220013706799e-01,6.204102838095373329e-01,7.910088871417083611e-01,7.067123091033199449e-04,4.660355403173838855e-04,-1.391407855926316255e-03,9.821806484765478393e-03,-3.219363391887092914e-03,-4.038567227100407775e-03,-2.884997088742784932e+00,1.599341322311879088e+00,3.456672799448190148e+01,-2.885034021864632425e+00,1.689025834642533530e+00,3.455977462829695668e+01,1.284108494748226360e-05,-9.360888367729408924e-03,7.210958885340605033e-04,-1.102237078905914189e-05,-1.794842275905160045e-09,2.151861500144365785e-05,-4.049835210920069734e-07,-1.548706770391422367e-08,-2.108830721741947538e-07,-1.104336931109450859e-01,1.762937335237926284e-01,3.689910940309260923e+00,7.585137811250894924e-01,8.923065348320841084e-01,6.159689933899831216e-01,7.846372268483381429e-01,7.579612133120825490e-01,4.208832081325719621e-02,-1.285102825189138320e-01,-1.045032556729194595e-01
6.900000000000545697e-01,8.500000000000000000e+01,-2.592061635541171791e-02,-3.487194309313919605e-01,1.795098416269738095e+02,-3.227622807025909424e-02,-3.788765668869018555e-01,-1.148105263710021973e-01,7.688798744844140831e-01,8.529471077892638586e-01,6.172074383965673317e-01,7.913371967106547222e-01,3.402946237309415617e-03,-2.839194985643160151e-04,-1.422224079916051135e-03,1.709566624970842584e-04,5.072408073439483266e-03,-2.265909124000012494e-03,-4.034489861954667411e+00,1.596655820298093609e+00,3.419527323034678545e+01,-4.033444974629580848e+00,1.678160654961959208e+00,3.418922887877065619e+01,1.351711300178054317e-05,-8.507159972150369134e-03,6.243279658716597126e-04,-5.308586856720113077e-05,8.999566115765450540e-08,2.202937376815814621e-05,-4.275715829978681056e-07,-7.409388245943188527e-08,-1.008256316172836524e-06,-1.543927080532740970e-01,1.751599342662123471e-01,3.650348073332221333e+00,7.591823217392761336e-01,8.897681267146645423e-01,6.160488644423303128e-01,7.850693281049563321e-01,7.575929043452250822e-01,4.503126250461880753e-02,-1.290984958094685831e-01,-1.066411735832279439e-01
6.999999999998181011e-01,8.500000000000000000e+01,-2.574615102026669988e-02,-3.487602476384664141e-01,1.795099871064537922e+02,-3.227622807025909424e-02,-3.788765668869018555e-01,-1.148105263710021973e-01,7.706020844866640074e-01,8.524914364972813186e-01,6.139461839621016548e-01,7.915384255929075463e-01,8.843254590956760135e-04,-1.436212874729812371e-04,-8.965662405281935076e-04,-1.136323177754750349e-02,1.078974016885713393e-02,-2.739442681917074809e-04,-5.199903533435200842e+00,1.595922520073557394e+00,3.388265803244928520e+01,-5.199756125866192846e+00,1.668106004626943806e+00,3.387804151321336832e+01,8.423859589599424661e-06,-7.534253950945301974e-03,4.792715297343602449e-04,-1.379919805581586911e-05,5.376571402563485127e-08,1.388982014601560870e-05,-2.671468167978778758e-07,-1.916665889454384154e-08,-2.604291580800375457e-07,-1.990369121979711498e-01,1.741101934692164399e-01,3.617122979901250091e+00,7.599188166690787893e-01,8.873640405745031323e-01,6.159132562386452348e-01,7.854865397060786236e-01,7.571445326347385762e-01,4.785144481009429018e-02,-1.297407968207116014e-01,-1.088044557144680069e-01
7.100000000000363798e-01,8.500000000000000000e+01,-2.562423955840449283e-02,-3.487441991652473483e-01,1.795101438236564206e+02,-3.227622807025909424e-02,-3.788765668869018555e-01,-1.148105263710021973e-01,7.699425712102591079e-01,8.523574408536050973e-01,6.097920515517623041e-01,7.897970171378650983e-01,-2.121227958514201005e-03,7.980356646261025245e-05,-3.189481069889035184e-04,-6.468565918002904501e-03,4.916813515982648881e-03,-1.914101177169204304e-03,-6.307698792367396834e+00,1.597069308869497384e+00,3.363051695132027419e+01,-6.308636916147892570e+00,1.658939000082374715e+00,3.362736375879705264e+01,2.886756599237422747e-06,-6.457757342474590954e-03,3.311033504813467622e-04,3.311463014017757472e-05,4.051248003019845160e-09,4.937916530450124545e-06,-9.176784601766270370e-08,4.585696191952253883e-08,6.217941584475686159e-07,-2.414827895451892026e-01,1.731532780732469856e-01,3.590358375977441341e+00,7.605652788207424297e-01,8.851063594147110525e-01,6.155184812931495664e-01,7.857645353916077324e-01,7.554722701883728186e-01,4.879504797137840244e-02,-1.312099176147243917e-01,-1.113554716871184014e-01
7.199999999997999112e-01,8.500000000000000000e+01,-2.584972607514735357e-02,-3.483522486827102527e-01,1.795103748260551697e+02,-3.227622807025909424e-02,-3.788765668869018555e-01,-1.148105263710021973e-01,7.692830579338841845e-01,8.522234452099348712e-01,6.056379191416119134e-01,7.880556086829018092e-01,-1.369327344547238224e-03,6.629496722801530130e-04,-1.262540093372404139e-04,6.668392745748505900e-03,-2.804646342661627420e-03,-2.703757527791332115e-03,-7.363238179224948610e+00,1.598399658248079502e+00,3.343525725963647233e+01,-7.363815058892283716e+00,1.650598858056589791e+00,3.343312360424269514e+01,7.150247055025667504e-07,-5.448297213895703615e-03,2.254799564396379932e-04,2.138941208015210035e-05,-7.313250294034170352e-08,1.928120744110091501e-06,-2.256504118324276054e-08,2.958280480838143229e-08,4.000731457246024163e-07,-2.818730300327769722e-01,1.722828023723698976e-01,3.569619509424542869e+00,7.611275146795772883e-01,8.829856411366983071e-01,6.148812540504144941e-01,7.859122936156768269e-01,7.538000077420832223e-01,4.973865113261960458e-02,-1.326790384086702912e-01,-1.139064876596527220e-01
7.300000000000181899e-01,8.500000000000000000e+01,-2.607521100020585361e-02,-3.479602973099575891e-01,1.795106058269302594e+02,-3.227622807025909424e-02,-3.788765668869018555e-01,-1.148105263710021973e-01,7.686235446574792851e-01,8.520894495662586499e-01,6.014837867312725628e-01,7.863142002278593612e-01,-1.315673443080074209e-04,1.292609706225180451e-03,1.666730221668401898e-05,1.373663379562896532e-02,-7.300273242685088523e-03,1.938340082190952596e-03,-8.368688949916968767e+00,1.599880580428582721e+00,3.329271651455141523e+01,-8.368717153021144384e+00,1.643029808936359304e+00,3.329148794937057687e+01,-1.009915255406741224e-06,-4.503590068292437701e-03,1.314513059678455546e-04,2.056659782407565729e-06,-1.542419366198900694e-07,-3.170523827980280233e-07,3.281740675437837462e-08,2.845628736280764766e-09,3.836324082966250632e-08,-3.203387972793998451e-01,1.714927877152667424e-01,3.554497267749857414e+00,7.616109562531455657e-01,8.809930525912799126e-01,6.140172109900626785e-01,7.859382137848323069e-01,7.521277452957173537e-01,5.068225429390371684e-02,-1.341481592026830816e-01,-1.164575036323030055e-01
7.399999999997817213e-01,8.500000000000000000e+01,-2.630069433359475892e-02,-3.475683450470065661e-01,1.795108368262816896e+02,-3.227622807025909424e-02,-3.788765668869018555e-01,-1.148105263710021973e-01,7.679640313811043617e-01,8.519554539225884238e-01,5.973296543211220611e-01,7.845727917728960721e-01,2.352451959154648153e-04,9.917210166680084319e-04,-4.339595576573428127e-04,1.081333723775861587e-02,-8.651164254313331928e-03,5.651933494576221600e-03,-9.326509918793819409e+00,1.601491530860161605e+00,3.319925564292661591e+01,-9.326496658131416595e+00,1.636178070700539999e+00,3.319885449185744619e+01,3.277928361777897120e-06,-3.620337658207826732e-03,3.620730842440708132e-05,-3.680592091037605053e-06,-9.758419389573366986e-08,6.691712857276847821e-06,-1.049295574968449712e-07,-5.102539064017715901e-09,-6.854203119616650352e-08,-3.570008015287198244e-01,1.707776379096976882e-01,3.544606917232124843e+00,7.620206852224682414e-01,8.791203303056941420e-01,6.129409801480268927e-01,7.858501536025782608e-01,7.504554828494276464e-01,5.162585745514497448e-02,-1.356172799966290365e-01,-1.190085196048373262e-01
7.500000000000000000e-01,8.500000000000000000e+01,-2.652617607536986513e-02,-3.471763918938036153e-01,1.795110678241094604e+02,-3.227622807025909424e-02,-3.788765668869018555e-01,-1.148105263710021973e-01,7.673045181046994623e-01,8.518214582789120914e-01,5.931755219107827104e-01,7.828313833178536241e-01,3.280433400096016672e-04,4.142583322700318319e-04,-1.062925161716061270e-03,-6.495305651012982066e-03,-4.488117553555520667e-03,3.793249191359813251e-03,-1.023995744917002249e+01,1.603222594688600511e+00,3.315147351328312908e+01,-1.024005913242977961e+01,1.629993323183431819e+00,3.315183668034172371e+01,9.330720733298482567e-06,-2.794214908478181297e-03,-5.518000122282070357e-05,-5.137678188912784756e-06,1.993392261948478130e-09,1.650065365756874384e-05,-3.007980648874045609e-07,-7.146994686947432590e-09,-9.561868288992156255e-08,-3.919702597087253437e-01,1.701321159380484727e-01,3.539586868332973424e+00,7.623614555356323930e-01,8.773597437434509372e-01,6.116662461540753881e-01,7.856554640054194127e-01,7.487832204030619998e-01,5.256946061642914225e-02,-1.370864007906417714e-01,-1.215595355774877206e-01
7.600000000002182787e-01,8.500000000000000000e+01,-2.669951613760024323e-02,-3.468196183910739472e-01,1.795112834191214404e+02,-3.227622807025909424e-02,-3.788765668869018555e-01,-1.148105263710021973e-01,7.666450048282945628e-01,8.516874626352358701e-01,5.890213895004433597e-01,7.810899748628110650e-01,-6.680096671438521053e-04,1.601228496792484217e-03,-9.148367302356707944e-04,-2.505492937846695578e-02,5.272022059535087270e-03,1.542828693940263103e-03,-1.111162925287124992e+01,1.605055115931160126e+00,3.314597915890912816e+01,-1.111208444072306634e+01,1.624429509923571047e+00,3.314725374036697048e+01,7.181766398791032929e-06,-2.022090136442888930e-03,-1.504360842781773944e-04,1.047393864043638733e-05,-1.451689532465205047e-07,1.415535136244607846e-05,-2.319677633129027490e-07,1.464021324862486853e-08,1.950064193045852695e-07,-4.253497555037024647e-01,1.695513219381483416e-01,3.539097472951816314e+00,7.626377145442818639e-01,8.757040609336662618e-01,6.102058110749557507e-01,7.853610218458072501e-01,7.471109579566962422e-01,5.351306377771319900e-02,-1.385555215846545063e-01,-1.241105515501379486e-01
7.699999999999818101e-01,8.500000000000000000e+01,-2.636192765127868057e-02,-3.468075836013886915e-01,1.795113480941271291e+02,-3.227622807025909424e-02,-3.788765668869018555e-01,-1.148105263710021973e-01,7.659854915519196394e-01,8.515534669915656441e-01,5.848672570902928580e-01,7.793485664078478869e-01,-1.664062674252010567e-03,2.788198661260959596e-03,-7.667482987620147326e-04,-1.869579147654619120e-02,1.472151588939310529e-02,-5.134037448740080183e-04,-1.194423732504555780e+01,1.606986137284036609e+00,3.317998626468391166e+01,-1.194504723792679712e+01,1.619441732246569288e+00,3.318211987657435458e+01,5.040870171777038160e-06,-1.299808097591239947e-03,-2.400930104374258869e-04,2.612392309759901081e-05,-2.931238750363217204e-07,1.180248857956329496e-05,-1.628471436564421348e-07,3.673737204941925666e-08,4.870163331781706426e-07,-4.572340107935104481e-01,1.690306724014019601e-01,3.542819857799184291e+00,7.628536227769462386e-01,8.741465163170629715e-01,6.085716513335457378e-01,7.849732604672502445e-01,7.454386955104065349e-01,5.445666693895451216e-02,-1.400246423786005168e-01,-1.266615675226722137e-01
7.800000000002000888e-01,8.500000000000000000e+01,-2.602433914658370748e-02,-3.467955491987755323e-01,1.795114127692092438e+02,-3.227622807025909424e-02,-3.788765668869018555e-01,-1.148105263710021973e-01,7.653259782755147400e-01,8.514194713478894228e-01,5.807131246799535074e-01,7.776071579528053279e-01,-7.537409979945460838e-04,1.757985943206556365e-03,-1.054564054721968732e-03,3.123543543035928183e-03,1.492634379085089509e-02,-3.091255076044904099e-03,-1.274071548665240172e+01,1.609019367138757151e+00,3.325090300162593593e+01,-1.274123484431936504e+01,1.614988361177575271e+00,3.325362680848546404e+01,8.301684467497961510e-06,-6.228820791866644451e-04,-3.073983044078328303e-04,1.184893631403823208e-05,-1.540930913812516088e-07,1.635892416739650489e-05,-2.705833304105393343e-07,1.678388430442294577e-08,2.213763887917250983e-07,-4.877105784599513605e-01,1.685658805388987602e-01,3.550454797072859492e+00,7.630130724371225748e-01,8.726807806656790012e-01,6.067749709570785521e-01,7.844981983075274279e-01,7.437664330640407773e-01,5.540027010023856890e-02,-1.414937631726132516e-01,-1.292125834953226637e-01
7.899999999999636202e-01,8.500000000000000000e+01,-2.568675062353423938e-02,-3.467835151832356910e-01,1.795114774443677845e+02,-3.227622807025909424e-02,-3.788765668869018555e-01,-1.148105263710021973e-01,7.646664649991398166e-01,8.512854757042191967e-01,5.765589922698031167e-01,7.758657494978421498e-01,4.538526059753409010e-04,3.820351940439152376e-04,-1.410352848311415387e-03,9.050772756655594414e-03,6.198748422325353093e-03,-2.865355625602292611e-03,-1.350263653806626962e+01,1.611133168608561483e+00,3.335591713232072664e+01,-1.350276353509430116e+01,1.611031117403890267e+00,3.335915121773357583e+01,1.241374336650046880e-05,1.063062263678653348e-05,-3.671798369029723543e-04,-7.145047348673590677e-06,3.127368631906959379e-08,2.201382106839943175e-05,-4.074879640095652560e-07,-1.020548449863225354e-08,-1.338943859660129271e-07,-5.168604653707522534e-01,1.681529377654415458e-01,3.561721626703592491e+00,7.631197047083733143e-01,8.713009329425465133e-01,6.048262513913157390e-01,7.839414656572305518e-01,7.420941706177510699e-01,5.634387326147982655e-02,-1.429628839665592066e-01,-1.317635994678569289e-01
8.000000000001818989e-01,8.500000000000000000e+01,-2.534916208208776514e-02,-3.467714815547680018e-01,1.795115421196027512e+02,-3.227622807025909424e-02,-3.788765668869018555e-01,-1.148105263710021973e-01,7.640069517227349172e-01,8.511514800605428643e-01,5.724048598594637660e-01,7.741243410427995908e-01,8.676705097725455383e-04,-1.775940813631355698e-04,-8.061652978495745031e-04,7.829171620607812757e-03,-6.949428293077839457e-03,-3.176624063102437626e-03,-1.423176447206227202e+01,1.622040917893392553e+00,3.349319024650164778e+01,-1.423159311891861201e+01,1.607535622488467153e+00,3.349622848920011364e+01,7.365145861331973632e-06,1.513957032415336494e-03,-3.367573600996529243e-04,-1.368108029075410035e-05,6.659473151879638955e-08,1.262471886998715778e-05,-2.431425420021417775e-07,-1.972416476769650404e-08,-2.573476171663847957e-07,-5.447586933087960048e-01,1.677880962513050855e-01,3.576357201675802955e+00,7.631769259433511809e-01,8.700014339762227600e-01,6.027352981019562517e-01,7.833083296925256178e-01,7.404219081713852013e-01,5.728747642276393881e-02,-1.444320047605718860e-01,-1.343146154405071568e-01
8.099999999999454303e-01,8.500000000000000000e+01,-2.503845006642339138e-02,-3.467624974253720183e-01,1.795116172606539351e+02,-3.227622807025909424e-02,-3.788765668869018555e-01,-1.148105263710021973e-01,7.551386263900532470e-01,8.549338526221329504e-01,5.729075373278598171e-01,7.739504282962100801e-01,1.145130881774438034e-03,-5.969928340995143577e-04,-3.706969492213180867e-05,1.743517388473931826e-02,-1.914793078919965752e-02,-4.108941217027992435e-03,-1.465795464314818553e+01,1.649464648072498374e+00,3.357449316310894005e+01,-1.465750086969252841e+01,1.606617152090504819e+00,3.357590696090423421e+01,7.394831711371379329e-07,4.472200359955272146e-03,-1.512228593155905370e-04,-1.808431719372508711e-05,7.374421202233234447e-08,6.152501573060768318e-07,-2.476282097528886657e-08,-2.625682464553126525e-08,-3.420997902924233602e-07,-5.610616435204169861e-01,1.676921850353959020e-01,3.584864353595333952e+00,7.626585117699399285e-01,8.690296802264161347e-01,6.008116158798791906e-01,7.827048104177004584e-01,7.392326111590640236e-01,5.062383236813527976e-02,-1.504190586002149832e-01,-1.316072566940580946e-01
8.200000000001637090e-01,8.500000000000000000e+01,-2.514880398567628100e-02,-3.468012826567618556e-01,1.795118563650476915e+02,-3.227622807025909424e-02,-3.788765668869018555e-01,-1.148105263710021973e-01,7.404971474245495289e-01,8.614705573789800397e-01,5.766852902495117617e-01,7.748789154438393556e-01,-1.896355074945733389e-04,-2.827995381842661146e-04,-3.621219512439491405e-04,2.087950364891488428e-02,-2.375497293979478286e-02,5.911502840233163981e-04,-1.460975338769048015e+01,1.685105132339354217e+00,3.354199878634621257e+01,-1.460991960649943877e+01,1.609614274113836840e+00,3.354125935176746509e+01,3.478921747965557908e-06,7.879370310853655440e-03,7.319110634864715794e-05,2.999366036488992190e-06,5.492407149626032701e-08,5.700346425294700161e-06,-1.157435161507424950e-07,4.366631952374898866e-09,5.720227358143684232e-08,-5.592403218105619356e-01,1.680050048655393202e-01,3.581165113409902290e+00,7.612292585674929057e-01,8.685421696034685279e-01,5.992556363998677860e-01,7.822000948560102751e-01,7.383829776242201159e-01,3.861010761994854157e-02,-1.595835175743790524e-01,-1.252017495550891146e-01
8.299999999999272404e-01,8.500000000000000000e+01,-2.525915806584609277e-02,-3.468400674307505760e-01,1.795120954695333353e+02,-3.227622807025909424e-02,-3.788765668869018555e-01,-1.148105263710021973e-01,7.258556684597116115e-01,8.680072621355299223e-01,5.804630431709920657e-01,7.758074025914263316e-01,-2.185158021728670925e-03,3.320496276412693119e-04,-1.135600518952950772e-03,1.725680834345956483e-02,-2.945346667419684178e-02,6.823106809711649949e-03,-1.412038092522251631e+01,1.722289067059014078e+00,3.340331979754528646e+01,-1.412154254021343114e+01,1.616264889216375344e+00,3.340056077913865806e+01,1.019052455547278787e-05,1.106629794882592506e-02,2.760783071343657054e-04,3.461291591061405542e-05,2.539278413812634276e-08,1.783217330791629141e-05,-3.389971891132210664e-07,5.032284584974116330e-08,6.670233913408985398e-07,-5.405461647975879913e-01,1.686990038416538440e-01,3.566142822757873532e+00,7.589479090911862569e-01,8.685076718081320424e-01,5.980436454034632199e-01,7.817878108581022278e-01,7.375333440894149550e-01,2.659638287230797760e-02,-1.687479765481262883e-01,-1.187962424164115127e-01
8.400000000001455192e-01,8.500000000000000000e+01,-2.536951230694341197e-02,-3.468788517473417321e-01,1.795123345741108665e+02,-3.227622807025909424e-02,-3.788765668869018555e-01,-1.148105263710021973e-01,7.112141894942078935e-01,8.745439668923770116e-01,5.842407960926440103e-01,7.767358897390554962e-01,-1.221662245398678253e-03,1.431673031972324588e-03,-1.215182808707337189e-03,1.733684756908408786e-02,-3.656674496694925502e-02,8.585929127235691558e-03,-1.322258418147981196e+01,1.760918345745923652e+00,3.316675050387026147e+01,-1.322335147208687900e+01,1.626313218453436793e+00,3.316196325197888939e+01,1.033448054542213068e-05,1.404961301741284273e-02,4.917026340476046784e-04,1.937925725748790407e-05,-1.037972698979297105e-07,1.904908957637771799e-05,-3.432923957558117916e-07,2.802768340186905718e-08,3.781437938471689139e-07,-5.061650985019205962e-01,1.697478759729695863e-01,3.540667947185252018e+00,7.558694175987217267e-01,8.688969706773538304e-01,5.971534580362541922e-01,7.814619972337524256e-01,7.366837105545711584e-01,1.458265812412118390e-02,-1.779124355222903020e-01,-1.123907352774425883e-01
8.499999999999090505e-01,8.500000000000000000e+01,-2.547986670895874620e-02,-3.469176356065316602e-01,1.795125736787802566e+02,-3.227622807025909424e-02,-3.788765668869018555e-01,-1.148105263710021973e-01,6.965727105293699761e-01,8.810806716489267831e-01,5.880185490141243143e-01,7.776643768866424722e-01,-9.980350116008595771e-05,2.557240948808309818e-03,-1.257628635199109892e-03,1.114442011852626903e-02,-3.128082622021508691e-02,9.694842225518094173e-03,-1.194436692853977000e+01,1.800865122876060598e+00,3.284014396685086723e+01,-1.194466552222926836e+01,1.639521157811954843e+00,3.283344322972172336e+01,1.018140627182065044e-05,1.684066595671122185e-02,6.957131842009503216e-04,1.585443544464061697e-06,-2.395435517057565370e-07,1.968611293979140395e-05,-3.372433861074011522e-07,2.272402652618920560e-09,3.138378905137622149e-08,-4.572194020126776337e-01,1.711265601946151960e-01,3.505592307433570198e+00,7.520451941821223452e-01,8.696827342864837940e-01,5.965643202119552679e-01,7.812170772478620462e-01,7.358340770197658864e-01,2.568933376480675435e-03,-1.870768944960374824e-01,-1.059852281387649864e-01
8.600000000001273293e-01,8.500000000000000000e+01,-2.558624748330668233e-02,-3.469672199986693628e-01,1.795128117818211138e+02,-3.227622807025909424e-02,-3.788765668869018555e-01,-1.148105263710021973e-01,6.819312315638661470e-01,8.876173764057738724e-01,5.917963019357762589e-01,7.785928640342717477e-01,-2.000359353476605356e-04,1.856844467436587123e-03,-8.852622351314587325e-04,2.584662866226912405e-03,-2.033184428975752175e-02,7.432659018218878977e-03,-1.031292758538905474e+01,1.842014574714005315e+00,3.243109834597355245e+01,-1.031319524058776693e+01,1.655661582193826087e+00,3.242276464021637139e+01,7.304644207159462709e-06,1.945094283685123299e-02,8.758389123737834970e-04,3.182177792079626723e-06,-1.778016581036726734e-07,1.387810600762689801e-05,-2.414829721382910428e-07,4.503229157755743969e-09,6.401161836636915423e-08,-3.947697756442700712e-01,1.728112286963933153e-01,3.461744577140322576e+00,7.475233333414905701e-01,8.708393934291357441e-01,5.962568163379000641e-01,7.810478338257976771e-01,7.349844434849220898e-01,-9.444791371706118266e-03,-1.962413534702016071e-01,-9.957972099979606195e-02
8.699999999998908606e-01,8.500000000000000000e+01,-2.542990606215757635e-02,-3.477309021103917042e-01,1.795129836560417687e+02,-3.227622807025909424e-02,-3.788765668869018555e-01,-1.148105263710021973e-01,6.672897525990282297e-01,8.941540811623237550e-01,5.955740548572565629e-01,7.795213511818587238e-01,-5.752875407170995230e-04,7.455332980037822875e-04,-4.195465688753730483e-04,2.343750894246253783e-03,-1.553679340546620415e-02,-4.262919443954235783e-03,-8.354768481902890898e+00,1.884264832008740287e+00,3.194725742212190411e+01,-8.355099972470677372e+00,1.674516907252360465e+00,3.193743886637166085e+01,3.644619867650358648e-06,2.189269427067877180e-02,1.041533611622987368e-03,9.164520553742447676e-06,-6.934887215241410932e-08,6.595665678625780766e-06,-1.203031873977848356e-07,1.275696264290056707e-08,1.876303397288811739e-07,-3.198175579466107088e-01,1.747792666492340441e-01,3.409926849088638079e+00,7.423488278177000632e-01,8.723430279340953497e-01,5.962127829915090382e-01,7.809493863577930961e-01,7.341348099501168178e-01,-2.145851611934668224e-02,-2.054058124439488431e-01,-9.317421386111840453e-02
8.800000000001091394e-01,8.500000000000000000e+01,-2.527356692116841663e-02,-3.484945847274763531e-01,1.795131555282379736e+02,-3.227622807025909424e-02,-3.788765668869018555e-01,-1.148105263710021973e-01,6.526482736335245116e-01,9.006907859191708443e-01,5.993518077789085075e-01,7.804498383294878883e-01,1.423144338044197120e-03,-8.748024074218003349e-04,-6.430273571759147211e-04,4.832913770376015897e-03,-9.762794392401944257e-03,-1.129410529125808235e-02,-6.095464439684954883e+00,1.927530022175615310e+00,3.139622426153303891e+01,-6.095049042709518972e+00,1.695881018147792130e+00,3.138470612567109441e+01,7.035521248080396785e-06,2.417847870110753639e-02,1.220032437807318194e-03,-2.270304265421938585e-05,1.357712965029626256e-07,1.022061462127797887e-05,-2.330957485794104497e-07,-3.096689721459027051e-08,-4.737574151077893580e-07,-2.333070449208112240e-01,1.770092451030668701e-01,3.350912099685309897e+00,7.365637686340278378e-01,8.741712603141469362e-01,5.964152281641088571e-01,7.809171689993261722e-01,7.332851764152730212e-01,-3.347224086753347594e-02,-2.145702714181128568e-01,-8.676870672214953562e-02
8.899999999998726707e-01,8.500000000000000000e+01,-2.511723006026947425e-02,-3.492582678499898119e-01,1.795133273984097571e+02,-3.227622807025909424e-02,-3.788765668869018555e-01,-1.148105263710021973e-01,6.380067946686865943e-01,9.072274906757207269e-01,6.031295607003888115e-01,7.813783254770748643e-01,3.911085678985056456e-03,-2.585246106444908688e-03,-1.006947263373141662e-03,1.108576298634966241e-02,-1.570698617877663893e-03,-5.176484914095967615e-03,-3.557612725692353095e+00,1.971700263722802271e+00,3.078471892740176941e+01,-3.556283921155481309e+00,1.719559236530021851e+00,3.077152123302012043e+01,1.201474129557385880e-05,2.631718464734215945e-02,1.394361107088827600e-03,-6.248131368864164503e-05,3.563027969084799057e-07,1.607354997172121683e-05,-3.975731439674815603e-07,-8.317936152965091208e-08,-1.330659070168854106e-06,-1.361278725648207288e-01,1.794808885594739445e-01,3.285442405279486167e+00,7.302075322368426491e-01,8.763031562736541824e-01,5.968482557128738097e-01,7.809469103709484328e-01,7.324355428804677492e-01,-4.548596561517403991e-02,-2.237347303918600927e-01,-8.036319958347187820e-02
9.000000000000909495e-01,8.500000000000000000e+01,-2.496089547936257078e-02,-3.500219514781374164e-01,1.795134992665571190e+02,-3.227622807025909424e-02,-3.788765668869018555e-01,-1.148105263710021973e-01,6.233653157031828762e-01,9.137641954325677052e-01,6.069073136220407561e-01,7.823068126247041398e-01,2.916053951614475635e-03,-3.135266426555485646e-03,-3.125923707932676092e-04,1.909549411292703336e-02,2.545372359793709105e-04,1.928968381982764085e-03,-7.617674496087327718e-01,1.994354338884387623e+00,3.011842260816618477e+01,-7.606807595776107211e-01,1.745373204063818795e+00,3.010452316568967746e+01,5.230229054347379288e-06,2.598730856149348081e-02,1.479962681859915566e-03,-4.665295524646489577e-05,3.928237401135928430e-07,5.081440293257064874e-06,-1.737301435477729484e-07,-6.036420023767623531e-08,-1.015215503918527452e-06,-2.911743049660064919e-02,1.821750384903137454e-01,3.214227784658863385e+00,7.233169555666822959e-01,8.787191316328610835e-01,5.974969946851774738e-01,7.810346145673554563e-01,7.315859093456238416e-01,-5.749969036336072259e-02,-2.328991893660241064e-01,-7.395769244450284274e-02
9.099999999998544808e-01,8.500000000000000000e+01,-2.480456317837797728e-02,-3.507856356119852803e-01,1.795136711326800310e+02,-3.227622807025909424e-02,-3.788765668869018555e-01,-1.148105263710021973e-01,6.226243053191591326e-01,9.109803048981703899e-01,6.104373325101193348e-01,7.831163517779936578e-01,1.921022224289143342e-03,-3.685286746641050493e-03,3.817625217550307901e-04,1.348761879534563987e-02,-3.526420269185497839e-03,3.964314369110748942e-03,1.829063959188092836e+00,1.986239409270729395e+00,2.943610773338833297e+01,1.829917036541482966e+00,1.768507688749588302e+00,2.942208808871924575e+01,-1.941070968367922810e-06,2.272555680346036860e-02,1.503491725627987847e-03,-3.077466225447813821e-05,4.357257417242219119e-07,-5.946423341932195554e-06,6.153205693859423365e-08,-3.862963003702211308e-08,-6.825335061453441011e-07,7.004578883566026093e-02,1.845896095104026524e-01,3.141365043045954764e+00,7.168229829670627051e-01,8.807997519631582950e-01,5.983315560862173532e-01,7.811688720764413674e-01,7.317895736263605455e-01,-5.783849015556846718e-02,-2.305175094234427902e-01,-7.002546296460826492e-02
9.200000000000727596e-01,8.500000000000000000e+01,-2.462869723499275243e-02,-3.510542798313059376e-01,1.795139959947437944e+02,-3.227622807025909424e-02,-3.788765668869018555e-01,-1.148105263710021973e-01,6.256118289930209242e-01,9.056963434645730615e-01,6.139009014959342370e-01,7.838939854135110741e-01,9.479597050402206043e-04,-2.895309585390282679e-03,5.124311874179912152e-04,-6.476198265956058676e-04,-7.930344500393475549e-03,4.608864575193617405e-03,4.111522738087383999e+00,1.970412924193511772e+00,2.874634835930961785e+01,4.112020536940721449e+00,1.787900589266286921e+00,2.873225763405654831e+01,-3.979533875781973969e-06,1.904957802788628460e-02,1.512866034014447155e-03,-1.520395771809171310e-05,3.377417199309842827e-07,-8.071516492486240782e-06,1.286850954458183923e-07,-1.849358379616855536e-08,-3.425492824502370242e-07,1.574004306282636989e-01,1.866137787705564322e-01,3.067712854867711059e+00,7.109405006485314260e-01,8.824054082115208031e-01,5.993356701127741104e-01,7.813446228516796044e-01,7.322757648417598242e-01,-5.504571527698765010e-02,-2.250387991945644872e-01,-6.675664277407439284e-02
9.299999999998362910e-01,8.500000000000000000e+01,-2.445241167832172893e-02,-3.513122545686280240e-01,1.795143241538540906e+02,-3.227622807025909424e-02,-3.788765668869018555e-01,-1.148105263710021973e-01,6.285993526667468245e-01,9.004123820312160964e-01,6.173644704815917095e-01,7.846716190489931853e-01,-2.243734172889641672e-05,-1.942753676206729688e-03,5.747091267534539406e-04,-8.883360061904562940e-03,-4.983590459496723205e-03,5.092376303028504220e-03,6.107807468295185949e+00,1.953373840496725578e+00,2.804771112807176081e+01,6.107933302665399466e+00,1.803809788632443567e+00,2.803355444299112520e+01,-5.350762935188845562e-06,1.561066641283466797e-02,1.520593431448867940e-03,3.602253752721938739e-07,2.222864160235593046e-07,-9.107222003447136099e-06,1.738338668973280799e-07,4.241411348125192923e-10,8.220456931328814097e-09,2.338002289021481328e-01,1.882743506285518564e-01,2.993113231691896914e+00,7.056300717592284277e-01,8.835667322436097093e-01,6.004984018048222794e-01,7.815591908672328003e-01,7.327619560571370094e-01,-5.225294039853389805e-02,-2.195600889659353738e-01,-6.348782258368906861e-02
9.400000000000545697e-01,8.500000000000000000e+01,-2.427612759282760449e-02,-3.515702303298769982e-01,1.795146523121825055e+02,-3.227622807025909424e-02,-3.788765668869018555e-01,-1.148105263710021973e-01,6.315868763406086162e-01,8.951284205976187680e-01,6.208280394674066116e-01,7.854492526845106015e-01,4.979478095777649556e-04,-2.016778473470055150e-03,-8.098283243211737165e-04,-8.842841000796412138e-03,2.414930270448086697e-03,1.735517307479502802e-03,7.838389433419815866e+00,1.935224223323737780e+00,2.733949045468263250e+01,7.838337756016277247e+00,1.816474537641900255e+00,2.732491182151420261e+01,1.031618006810024605e-05,1.239435572005960495e-02,1.543771770115941275e-03,-8.001201185255809141e-06,2.639497498470633549e-07,1.295805943833138820e-05,-3.368647948320689321e-07,-9.109920593662494211e-09,-1.844445180247031932e-07,3.000368726331770208e-01,1.895962724996594906e-01,2.917452132391824549e+00,7.008548028487885384e-01,8.843123803836846486e-01,6.018095214308971652e-01,7.818100726822424518e-01,7.332481472725360661e-01,-4.946016551995308097e-02,-2.140813787370570709e-01,-6.021900239315508552e-02
9.499999999998181011e-01,8.500000000000000000e+01,-2.409984497851408100e-02,-3.518282071150346524e-01,1.795149804697290108e+02,-3.227622807025909424e-02,-3.788765668869018555e-01,-1.148105263710021973e-01,6.345744000143346275e-01,8.898444591642618029e-01,6.242916084530640841e-01,7.862268863199926017e-01,1.526700574443997770e-03,-2.439818435489027066e-03,-2.685565655026087191e-03,-1.164926118371520727e-02,8.343912720581629291e-03,-2.956518351524362129e-03,9.322591682718698536e+00,1.916040720183310953e+00,2.662072128359632472e+01,9.322421177134861736e+00,1.826115106806522004e+00,2.660560346931520925e+01,3.212157146870287081e-05,9.385749488341343580e-03,1.571782992101504548e-03,-2.454869690772805194e-05,3.483112108153497017e-07,4.290043625108653076e-05,-1.046240589923359294e-06,-2.700058829378253745e-08,-5.702409746298027078e-07,3.568448144094347185e-01,1.906027692053605671e-01,2.840652153633019594e+00,6.965801798366756392e-01,8.846691608232867265e-01,6.032594590057382966e-01,7.820949263102944249e-01,7.337343384879133623e-01,-4.666739064149932892e-02,-2.086026685084278465e-01,-5.695018220276992782e-02
9.600000000000363798e-01,8.500000000000000000e+01,-2.392356383535280961e-02,-3.520861849241298525e-01,1.795153086264935780e+02,-3.227622807025909424e-02,-3.788765668869018555e-01,-1.148105263710021973e-01,6.375619236881964191e-01,8.845604977306644745e-01,6.277551774388790973e-01,7.870045199555100179e-01,1.935974948215791504e-03,-1.263606797694206280e-03,-1.545900925123044152e-03,-2.694716843367459327e-02,1.786517810075423374e-02,-2.663655207198667961e-03,1.057764561313634566e+01,1.895899166907903499e+00,2.589031826208207221e+01,1.057799128583005910e+01,1.832944013250958459e+00,2.587518540834780012e+01,1.851762658156646697e-05,6.570857864712190133e-03,1.591744138207593995e-03,-3.114690658898521501e-05,1.787976171052420944e-07,2.470220275719271370e-05,-6.024224087511699046e-07,-3.306063181171547065e-08,-7.274069341819079177e-07,4.049056723797446189e-01,1.913154669279304998e-01,2.762666267249215934e+00,6.927739145594840053e-01,8.846621528128277845e-01,6.048392617413080874e-01,7.824115608067440109e-01,7.342205297033124189e-01,-4.387461576291856735e-02,-2.031239582795494880e-01,-5.368136201223588921e-02
9.699999999997999112e-01,8.500000000000000000e+01,-2.453224896282841724e-02,-3.518413555713845731e-01,1.795157021485980522e+02,-3.227622807025909424e-02,-3.788765668869018555e-01,-1.148105263710021973e-01,6.405494473619223195e-01,8.792765362973073984e-01,6.312187464245365698e-01,7.877821535909920181e-01,2.345249321968973823e-03,-8.739515995287308950e-05,-4.062361952718272773e-04,-3.670177669154470884e-02,2.693390949643304291e-02,-2.029160125845712228e-03,1.162071354423608049e+01,1.874875743826219798e+00,2.514859202521819270e+01,1.162157939822960451e+01,1.837151692091222532e+00,2.513345338009222729e+01,4.758598681445848750e-06,3.937506155551521655e-03,1.610731783982389002e-03,-3.774722804694413800e-05,1.598873366410967671e-08,6.489921965340174635e-06,-1.546376224616503105e-07,-3.862749381555128765e-08,-8.844310955307133511e-07,4.448522635135443437e-01,1.917545076513815228e-01,2.683472464073146213e+00,6.894058012147958880e-01,8.843148181662784379e-01,6.065405542418418339e-01,7.827579265275675935e-01,7.347067209186894932e-01,-4.108184088446481530e-02,-1.976452480509202636e-01,-5.041254182185050947e-02
9.800000000000181899e-01,8.500000000000000000e+01,-2.516139005918363591e-02,-3.515834178098991569e-01,1.795160973715204307e+02,-3.227622807025909424e-02,-3.788765668869018555e-01,-1.148105263710021973e-01,6.435369710357841111e-01,8.739925748637100700e-01,6.346823154103514719e-01,7.885597872265094344e-01,1.008605382685893916e-03,2.130064202036872347e-04,-5.127957603302432362e-04,-2.818429369385638122e-02,2.912962514455726473e-02,-8.016214040187909229e-03,1.246826328377653681e+01,1.853029609467786498e+00,2.439553260245707023e+01,1.246853936585984002e+01,1.838916246800996079e+00,2.438039447762913525e+01,5.860736511317386261e-06,1.473132175159890325e-03,1.608471751597516201e-03,-1.623833187724895520e-05,-2.061794948531178216e-08,8.190933378256411653e-06,-1.903089989493110967e-07,-1.600381228673028288e-08,-3.809617992021565417e-07,4.772723022791907077e-01,1.919386548863163955e-01,2.603069182008324489e+00,6.864475820634787784e-01,8.836491055744585266e-01,6.083555012661192585e-01,7.831321060164688763e-01,7.351929121340887718e-01,-3.828906600588399822e-02,-1.921665378220419607e-01,-4.714372163131663740e-02
9.899999999997817213e-01,8.500000000000000000e+01,-2.579052935055449816e-02,-3.513254757459862154e-01,1.795164925916650134e+02,-3.227622807025909424e-02,-3.788765668869018555e-01,-1.148105263710021973e-01,6.465244947095100114e-01,8.687086134303531049e-01,6.381458843960089444e-01,7.893374208619914345e-01,-3.691400112095489204e-04,4.927901586542573781e-04,-6.486932565968197379e-04,-1.120268458555069221e-02,2.292381599252731050e-02,-1.619037246486578971e-02,1.313347567256742998e+01,1.830431636933577577e+00,2.363127758891522134e+01,1.313313550057448431e+01,1.838406439110275015e+00,2.361614848466232885e+01,7.314505193023888562e-06,-8.323282941468129357e-04,1.604817185019283450e-03,5.944038838033681240e-06,-5.484846121534739391e-08,1.036204748793709209e-05,-2.373981237793011112e-07,5.636050674522135279e-09,1.393733254657383672e-07,5.027117953816742091e-01,1.918853914025026586e-01,2.521471412042222582e+00,6.838728217931752118e-01,8.826855481909737788e-01,6.102767728912290579e-01,7.835323054796847764e-01,7.356791033494658461e-01,-3.549629112743030168e-02,-1.866878275934127918e-01,-4.387490144093136868e-02
1.000000000000000000e+00,8.500000000000000000e+01,-2.641966683711160363e-02,-3.510675293796172158e-01,1.795168878090316866e+02,-3.227622807025909424e-02,-3.788765668869018555e-01,-1.148105263710021973e-01,6.495120183833718031e-01,8.634246519967557765e-01,6.416094533818238466e-01,7.901150544975088508e-01,-1.146611683327896291e-03,1.117020472008333062e-03,-4.414588147515414486e-04,-5.670421282536891594e-04,1.454206881759112675e-02,-1.712047335297749162e-02,1.362922294751708208e+01,1.804198807369807200e+00,2.285578788539485373e+01,1.362862386027353878e+01,1.835777830473329209e+00,2.284097978542443030e+01,4.617809613316236470e-06,-3.295973352623041228e-03,1.573565618872487838e-03,1.846403824851195730e-05,-1.338237967755643262e-07,7.047754940446819318e-06,-1.499117497903312006e-07,1.682483286339000000e-08,4.319411916864016930e-07,5.216781601018183334e-01,1.916110096261428031e-01,2.438707389765108147e+00,6.816567899845411560e-01,8.814433549244156119e-01,6.122975119231084395e-01,7.839568468106243859e-01,7.361652945648651247e-01,-3.270351624884948460e-02,-1.812091173645344888e-01,-4.060608125039749661e-02
1.010000000000218279e+00,8.500000000000000000e+01,-2.704880251893972826e-02,-3.508095787107991526e-01,1.795172830236201662e+02,-3.227622807025909424e-02,-3.788765668869018555e-01,-1.148105263710021973e-01,6.572885599980453630e-01,8.530760373196012436e-01,6.396155585016468637e-01,7.922429179983645486e-01,-1.818235771751218130e-03,1.801987806387544098e-03,-1.737191646704757363e-04,-4.905958390950958432e-03,1.357859671241223865e-02,-5.502123317078555509e-03,1.367460011365848338e+01,1.772867353634963505e+00,2.208796905283364964e+01,1.367380446594380494e+01,1.830173057993450980e+00,2.207385790596572406e+01,1.215286643853961436e-06,-5.981143158948367018e-03,1.503183168463469253e-03,2.928032465630465184e-05,-2.195366526939419038e-07,2.767010461977422318e-06,-3.970899653430935636e-08,2.569832583502363531e-08,6.821837301780093365e-07,5.234075893828882275e-01,1.910260192419767633e-01,2.356802458728250116e+00,6.800852093632691053e-01,8.796138610855154250e-01,6.140593351100051001e-01,7.844912405237643993e-01,7.355557684544145047e-01,-2.158005891241909779e-02,-1.742074184091367828e-01,-3.925306040881754166e-02
1.019999999999981810e+00,8.500000000000000000e+01,-2.701374024064587959e-02,-3.508320083189660488e-01,1.795173200572341159e+02,-3.227622807025909424e-02,-3.788765668869018555e-01,-1.148105263710021973e-01,6.662082253049287361e-01,8.415185056605877234e-01,6.363189839649738833e-01,7.946930771698750284e-01,-1.609940004552466285e-03,1.524869040187250323e-03,-6.104344470925052472e-04,-1.317645387254722661e-02,1.487530007292098104e-02,1.044021520482368327e-02,1.323029136171698106e+01,1.739504737515880750e+00,2.133254801137016798e+01,1.322945307259436554e+01,1.821575742345962645e+00,2.131897321143877022e+01,6.367821386467817685e-06,-8.566076970428652959e-03,1.439017852772635827e-03,2.592719313353797529e-05,-1.836319710258723701e-07,9.748771230290853094e-06,-2.068790933411282546e-07,2.198638279732268642e-08,6.005383291438272826e-07,5.063986499352601811e-01,1.901286206276002200e-01,2.276204265308905406e+00,6.791902408226786481e-01,8.771569767578697441e-01,6.154949269767995279e-01,7.851491877272869235e-01,7.346846980250912873e-01,-8.468093575378921045e-03,-1.668421867802800662e-01,-3.835733491533377393e-02
1.030000000000200089e+00,8.500000000000000000e+01,-2.689901002875869432e-02,-3.508880687620050676e-01,1.795173141284650171e+02,-3.227622807025909424e-02,-3.788765668869018555e-01,-1.148105263710021973e-01,6.751278906122176737e-01,8.299609740010486236e-01,6.330224094281509117e-01,7.971432363414968636e-01,-1.036981553234997714e-03,8.490356665692207639e-04,-1.339094984416091053e-03,-1.368717950621076498e-02,7.001059815205481693e-03,1.229430095129984031e-02,1.232980307126069164e+01,1.704973748978539483e+00,2.058938988947807047e+01,1.232898983203322985e+01,1.810210960408888292e+00,2.057622972621301116e+01,1.491285211087880950e-05,-1.098415010758014426e-02,1.383314573882905244e-03,1.670094161377542872e-05,-9.692196093340705394e-08,2.139835408153515685e-05,-4.845213040160945448e-07,1.372737780760934274e-08,3.839120404183704736e-07,4.719306053860983230e-01,1.889423829856496095e-01,2.196902425855837393e+00,6.789282476097485697e-01,8.741131642456263506e-01,6.166253271648926004e-01,7.859227200840945837e-01,7.338136275957285459e-01,4.643871762257500979e-03,-1.594769551510884509e-01,-3.746160942180926101e-02
1.039999999999963620e+00,8.500000000000000000e+01,-2.678427981286985241e-02,-3.509441291928873663e-01,1.795173081995844200e+02,-3.227622807025909424e-02,-3.788765668869018555e-01,-1.148105263710021973e-01,6.840475559191009358e-01,8.184034423420351034e-01,6.297258348914778203e-01,7.995933955130073434e-01,-1.712938959838126735e-03,1.050469249790341245e-03,-1.109976198292565676e-03,-1.015119500499787365e-02,-4.238919820319198700e-03,2.565550711701991820e-03,1.100469544847986114e+01,1.669374564365204039e+00,1.985837190432276955e+01,1.100366891951616033e+01,1.796289544716308528e+00,1.984586064317016962e+01,1.209796930680124603e-05,-1.324677149586201558e-02,1.317450675244347374e-03,2.758927302903741065e-05,-1.214540812007197559e-07,1.773522679152170149e-05,-3.936388307509115564e-07,2.204973260769009603e-08,6.283394692982510009e-07,4.211998063864077491e-01,1.874892869633427439e-01,2.118921623542663113e+00,6.792584072371713466e-01,8.705202763170136748e-01,6.174702184057966337e-01,7.868043831591593484e-01,7.329425571664053285e-01,1.775583709929767773e-02,-1.521117235222318453e-01,-3.656588392832543777e-02
1.050000000000181899e+00,8.500000000000000000e+01,-2.666954959296814406e-02,-3.510001896116181075e-01,1.795173022705923245e+02,-3.227622807025909424e-02,-3.788765668869018555e-01,-1.148105263710021973e-01,6.929672212263898734e-01,8.068459106824960037e-01,6.264292603546549598e-01,8.020435546846291786e-01,-2.470454417025754173e-03,1.309191066139177816e-03,-8.183114736275572641e-04,-1.407738149010460829e-03,-8.437567554105025736e-03,-2.549854415649174637e-03,9.283973826563286735e+00,1.632812507256463208e+00,1.914023704507964396e+01,9.282716745719268303e+00,1.780007561492783053e+00,1.912835506829487286e+01,8.605946042419161871e-06,-1.536350034337337529e-02,1.254659672903015626e-03,3.979323083365588382e-05,-1.534344576552667653e-07,1.307015164753804154e-05,-2.804797857309584061e-07,3.101853350714100709e-08,8.963844894488456856e-07,3.553249849959778661e-01,1.857898313537869606e-01,2.042314210412339293e+00,6.801425299829768623e-01,8.664137245010444799e-01,6.180480140323066918e-01,7.877872032764572374e-01,7.320714867370424761e-01,3.086780243693404424e-02,-1.447464918930401745e-01,-3.567015843480086934e-02
1.059999999999945430e+00,8.500000000000000000e+01,-2.655481936906320395e-02,-3.510562500181922396e-01,1.795172963414887590e+02,-3.227622807025909424e-02,-3.788765668869018555e-01,-1.148105263710021973e-01,7.018868865332732465e-01,7.952883790234824835e-01,6.231326858179818684e-01,8.044937138561395473e-01,-1.147757515227540654e-03,6.091433040314655090e-04,-1.517382587467052714e-03,8.656747341112528207e-03,-1.024354820127839662e-02,-1.886481521985197652e-03,7.194359617940609297e+00,1.595389337868204693e+00,1.843604479620643133e+01,7.193461710551382282e+00,1.761548156068827531e+00,1.842440139521876219e+01,1.641698174509211553e-05,-1.734293947468197247e-02,1.218490909083916243e-03,1.848944830831596517e-05,-5.815097176305421947e-08,2.425155306209725740e-05,-5.362191931411731855e-07,1.409805110210485999e-08,4.112590636798246536e-07,2.753522209388989950e-01,1.838631326627034324e-01,1.967153982046760063e+00,6.815448890954529659e-01,8.618266365305287113e-01,6.183759398458895662e-01,7.888646565133420330e-01,7.312004163077192587e-01,4.397976777397422099e-02,-1.373812602641834579e-01,-3.477443294131710161e-02
